"STUDYID","USUBJID","SUBJID","SITEID","COUNTRY","DOMAIN","RFSTDTC","RFENDTC","RFXSTDTC","RFXENDTC","RFPENDTC","SCRFDT","FRVDT","DTHDTC","DTHADY","DTHFL","LDDTHELD","LDDTHGR1","DTH30FL","DTHA30FL","DTHDOM","DTHB30FL","ASEQ","REGION1","DMDTC","DMDY","AGE","AGEU","AGEGR1","SEX","RACE","RACEGR1","ETHNIC","SAFFL","ARM","ARMCD","ACTARM","ACTARMCD","TRT01P","TRT01A","TRTSDT","TRTSDTM","TRTSTMF","TRTEDT","TRTEDTM","TRTETMF","EOSSTT","EOSDT","RFICDTC","RANDDT","LSTALVDT","TRTDURD","DTHDT","DTHCAUS","DTHCGR1","ADT","ADTF","AVISIT","PARAM","PARAMCD","PARCAT1","PARCAT2","PARCAT3","AVAL","AVALC","ANL01FL","ANL02FL","VISITNUM","VISIT","RSTESTCD","RSTEST","RSORRES","RSSTRESC","RSEVAL","RSEVALID","RSACPTFL","RSDTC","RSSEQ","DTHDTF"
"CDISCPILOT01","01-701-1015","1015","701","USA","RS","2014-01-02","2014-07-02","2014-01-02","2014-07-02","2014-07-02T11:45",NA,NA,NA,NA,NA,NA,NA,NA,NA,NA,NA,1,"NA","2013-12-26",-7,63,"YEARS","18-64","F","WHITE","White","HISPANIC OR LATINO","Y","Placebo","Pbo","Placebo","Pbo","Placebo","Placebo",2014-01-02,2014-01-02,"H",2014-07-02,2014-07-02 23:59:59,"H","COMPLETED",2014-07-02,NA,2014-01-02,2014-07-02,182,NA,NA,NA,2014-03-06,NA,"WEEK 9","Best Overall Response of CR/PR by Investigator (confirmation not required)","BCP","Tumor Response","Investigator","RECIST 1.1",1,"Y","Y","Y",4,"WEEK 9","OVRLRESP","Overall Response","CR","CR","INVESTIGATOR",NA,NA,"2014-03-06",9,NA
"CDISCPILOT01","01-701-1015","1015","701","USA","RS","2014-01-02","2014-07-02","2014-01-02","2014-07-02","2014-07-02T11:45",NA,NA,NA,NA,NA,NA,NA,NA,NA,NA,NA,2,"NA","2013-12-26",-7,63,"YEARS","18-64","F","WHITE","White","HISPANIC OR LATINO","Y","Placebo","Pbo","Placebo","Pbo","Placebo","Placebo",2014-01-02,2014-01-02,"H",2014-07-02,2014-07-02 23:59:59,"H","COMPLETED",2014-07-02,NA,2014-01-02,2014-07-02,182,NA,NA,NA,2014-03-06,NA,"WEEK 9","Best Overall Response by Investigator (confirmation not required)","BOR","Tumor Response","Investigator","RECIST 1.1",1,"CR","Y","Y",4,"WEEK 9","OVRLRESP","Overall Response","CR","CR","INVESTIGATOR",NA,NA,"2014-03-06",9,NA
"CDISCPILOT01","01-701-1015","1015","701","USA","RS","2014-01-02","2014-07-02","2014-01-02","2014-07-02","2014-07-02T11:45",NA,NA,NA,NA,NA,NA,NA,NA,NA,NA,NA,3,"NA","2013-12-26",-7,63,"YEARS","18-64","F","WHITE","White","HISPANIC OR LATINO","Y","Placebo","Pbo","Placebo","Pbo","Placebo","Placebo",2014-01-02,2014-01-02,"H",2014-07-02,2014-07-02 23:59:59,"H","COMPLETED",2014-07-02,NA,2014-01-02,2014-07-02,182,NA,NA,NA,2014-03-06,NA,"WEEK 9","Clinical Benefit by Investigator (confirmation for response not required)","CB","Tumor Response","Investigator","RECIST 1.1",1,"Y","Y","Y",4,"WEEK 9","OVRLRESP","Overall Response","CR","CR","INVESTIGATOR",NA,NA,"2014-03-06",9,NA
"CDISCPILOT01","01-701-1015","1015","701","USA",NA,"2014-01-02","2014-07-02","2014-01-02","2014-07-02","2014-07-02T11:45",NA,NA,NA,NA,NA,NA,NA,NA,NA,NA,NA,4,"NA","2013-12-26",-7,63,"YEARS","18-64","F","WHITE","White","HISPANIC OR LATINO","Y","Placebo","Pbo","Placebo","Pbo","Placebo","Placebo",2014-01-02,2014-01-02,"H",2014-07-02,2014-07-02 23:59:59,"H","COMPLETED",2014-07-02,NA,2014-01-02,2014-07-02,182,NA,NA,NA,NA,NA,NA,"Best Confirmed Overall Response of CR/PR by Investigator","CBCP","Tumor Response","Investigator","RECIST 1.1",0,"N","Y",NA,NA,NA,NA,NA,NA,NA,NA,NA,NA,NA,NA,NA
"CDISCPILOT01","01-701-1015","1015","701","USA","RS","2014-01-02","2014-07-02","2014-01-02","2014-07-02","2014-07-02T11:45",NA,NA,NA,NA,NA,NA,NA,NA,NA,NA,NA,5,"NA","2013-12-26",-7,63,"YEARS","18-64","F","WHITE","White","HISPANIC OR LATINO","Y","Placebo","Pbo","Placebo","Pbo","Placebo","Placebo",2014-01-02,2014-01-02,"H",2014-07-02,2014-07-02 23:59:59,"H","COMPLETED",2014-07-02,NA,2014-01-02,2014-07-02,182,NA,NA,NA,2014-03-06,NA,"WEEK 9","Best Confirmed Overall Response by Investigator","CBOR","Tumor Response","Investigator","RECIST 1.1",3,"SD","Y","Y",4,"WEEK 9","OVRLRESP","Overall Response","CR","CR","INVESTIGATOR",NA,NA,"2014-03-06",9,NA
"CDISCPILOT01","01-701-1015","1015","701","USA","RS","2014-01-02","2014-07-02","2014-01-02","2014-07-02","2014-07-02T11:45",NA,NA,NA,NA,NA,NA,NA,NA,NA,NA,NA,6,"NA","2013-12-26",-7,63,"YEARS","18-64","F","WHITE","White","HISPANIC OR LATINO","Y","Placebo","Pbo","Placebo","Pbo","Placebo","Placebo",2014-01-02,2014-01-02,"H",2014-07-02,2014-07-02 23:59:59,"H","COMPLETED",2014-07-02,NA,2014-01-02,2014-07-02,182,NA,NA,NA,2014-03-06,NA,"WEEK 9","Confirmed Clinical Benefit by Investigator","CCB","Tumor Response","Investigator","RECIST 1.1",1,"Y","Y","Y",4,"WEEK 9","OVRLRESP","Overall Response","CR","CR","INVESTIGATOR",NA,NA,"2014-03-06",9,NA
"CDISCPILOT01","01-701-1015","1015","701","USA",NA,"2014-01-02","2014-07-02","2014-01-02","2014-07-02","2014-07-02T11:45",NA,NA,NA,NA,NA,NA,NA,NA,NA,NA,NA,7,"NA","2013-12-26",-7,63,"YEARS","18-64","F","WHITE","White","HISPANIC OR LATINO","Y","Placebo","Pbo","Placebo","Pbo","Placebo","Placebo",2014-01-02,2014-01-02,"H",2014-07-02,2014-07-02 23:59:59,"H","COMPLETED",2014-07-02,NA,2014-01-02,2014-07-02,182,NA,NA,NA,NA,NA,NA,"Confirmed Response by Investigator","CRSP","Tumor Response","Investigator","RECIST 1.1",0,"N","Y",NA,NA,NA,NA,NA,NA,NA,NA,NA,NA,NA,NA,NA
"CDISCPILOT01","01-701-1015","1015","701","USA",NA,"2014-01-02","2014-07-02","2014-01-02","2014-07-02","2014-07-02T11:45",NA,NA,NA,NA,NA,NA,NA,NA,NA,NA,NA,8,"NA","2013-12-26",-7,63,"YEARS","18-64","F","WHITE","White","HISPANIC OR LATINO","Y","Placebo","Pbo","Placebo","Pbo","Placebo","Placebo",2014-01-02,2014-01-02,"H",2014-07-02,2014-07-02 23:59:59,"H","COMPLETED",2014-07-02,NA,2014-01-02,2014-07-02,182,NA,NA,NA,NA,NA,NA,"Death","DEATH","Reference Event",NA,NA,0,"N","Y",NA,NA,NA,NA,NA,NA,NA,NA,NA,NA,NA,NA,NA
"CDISCPILOT01","01-701-1015","1015","701","USA","RS","2014-01-02","2014-07-02","2014-01-02","2014-07-02","2014-07-02T11:45",NA,NA,NA,NA,NA,NA,NA,NA,NA,NA,NA,9,"NA","2013-12-26",-7,63,"YEARS","18-64","F","WHITE","White","HISPANIC OR LATINO","Y","Placebo","Pbo","Placebo","Pbo","Placebo","Placebo",2014-01-02,2014-01-02,"H",2014-07-02,2014-07-02 23:59:59,"H","COMPLETED",2014-07-02,NA,2014-01-02,2014-07-02,182,NA,NA,NA,2014-03-06,NA,"WEEK 9","Last Disease Assessment by Investigator","LSTA","Tumor Response","Investigator","RECIST 1.1",1,"CR","Y","Y",4,"WEEK 9","OVRLRESP","Overall Response","CR","CR","INVESTIGATOR",NA,NA,"2014-03-06",9,NA
"CDISCPILOT01","01-701-1015","1015","701","USA",NA,"2014-01-02","2014-07-02","2014-01-02","2014-07-02","2014-07-02T11:45",NA,NA,NA,NA,NA,NA,NA,NA,NA,NA,NA,10,"NA","2013-12-26",-7,63,"YEARS","18-64","F","WHITE","White","HISPANIC OR LATINO","Y","Placebo","Pbo","Placebo","Pbo","Placebo","Placebo",2014-01-02,2014-01-02,"H",2014-07-02,2014-07-02 23:59:59,"H","COMPLETED",2014-07-02,NA,NA,2014-07-02,182,NA,NA,NA,NA,NA,NA,"Measurable Disease at Baseline by Investigator","MDIS",NA,"Investigator","RECIST 1.1",1,"Y","Y",NA,NA,NA,NA,NA,NA,NA,NA,NA,NA,NA,NA,NA
"CDISCPILOT01","01-701-1015","1015","701","USA","RS","2014-01-02","2014-07-02","2014-01-02","2014-07-02","2014-07-02T11:45",NA,NA,NA,NA,NA,NA,NA,NA,NA,NA,NA,11,"NA","2013-12-26",-7,63,"YEARS","18-64","F","WHITE","White","HISPANIC OR LATINO","Y","Placebo","Pbo","Placebo","Pbo","Placebo","Placebo",2014-01-02,2014-01-02,"H",2014-07-02,2014-07-02 23:59:59,"H","COMPLETED",2014-07-02,NA,2014-01-02,2014-07-02,182,NA,NA,NA,2014-01-23,NA,"WEEK 3","Overall Response by Investigator","OVR","Tumor Response","Investigator","RECIST 1.1",3,"SD","Y","Y",2,"WEEK 3","OVRLRESP","Overall Response","SD","SD","INVESTIGATOR",NA,NA,"2014-01-23",3,NA
"CDISCPILOT01","01-701-1015","1015","701","USA","RS","2014-01-02","2014-07-02","2014-01-02","2014-07-02","2014-07-02T11:45",NA,NA,NA,NA,NA,NA,NA,NA,NA,NA,NA,12,"NA","2013-12-26",-7,63,"YEARS","18-64","F","WHITE","White","HISPANIC OR LATINO","Y","Placebo","Pbo","Placebo","Pbo","Placebo","Placebo",2014-01-02,2014-01-02,"H",2014-07-02,2014-07-02 23:59:59,"H","COMPLETED",2014-07-02,NA,2014-01-02,2014-07-02,182,NA,NA,NA,2014-02-28,"D","WEEK 6","Overall Response by Investigator","OVR","Tumor Response","Investigator","RECIST 1.1",6,"NE","Y","Y",3,"WEEK 6","OVRLRESP","Overall Response","NE","NE","INVESTIGATOR",NA,NA,"2014-02",6,NA
"CDISCPILOT01","01-701-1015","1015","701","USA","RS","2014-01-02","2014-07-02","2014-01-02","2014-07-02","2014-07-02T11:45",NA,NA,NA,NA,NA,NA,NA,NA,NA,NA,NA,13,"NA","2013-12-26",-7,63,"YEARS","18-64","F","WHITE","White","HISPANIC OR LATINO","Y","Placebo","Pbo","Placebo","Pbo","Placebo","Placebo",2014-01-02,2014-01-02,"H",2014-07-02,2014-07-02 23:59:59,"H","COMPLETED",2014-07-02,NA,2014-01-02,2014-07-02,182,NA,NA,NA,2014-03-06,NA,"WEEK 9","Overall Response by Investigator","OVR","Tumor Response","Investigator","RECIST 1.1",1,"CR","Y","Y",4,"WEEK 9","OVRLRESP","Overall Response","CR","CR","INVESTIGATOR",NA,NA,"2014-03-06",9,NA
"CDISCPILOT01","01-701-1015","1015","701","USA",NA,"2014-01-02","2014-07-02","2014-01-02","2014-07-02","2014-07-02T11:45",NA,NA,NA,NA,NA,NA,NA,NA,NA,NA,NA,14,"NA","2013-12-26",-7,63,"YEARS","18-64","F","WHITE","White","HISPANIC OR LATINO","Y","Placebo","Pbo","Placebo","Pbo","Placebo","Placebo",2014-01-02,2014-01-02,"H",2014-07-02,2014-07-02 23:59:59,"H","COMPLETED",2014-07-02,NA,2014-01-02,2014-07-02,182,NA,NA,NA,NA,NA,NA,"Disease Progression by Investigator","PD","Tumor Response","Investigator","RECIST 1.1",0,"N","Y",NA,NA,NA,NA,NA,NA,NA,NA,NA,NA,NA,NA,NA
"CDISCPILOT01","01-701-1015","1015","701","USA","RS","2014-01-02","2014-07-02","2014-01-02","2014-07-02","2014-07-02T11:45",NA,NA,NA,NA,NA,NA,NA,NA,NA,NA,NA,15,"NA","2013-12-26",-7,63,"YEARS","18-64","F","WHITE","White","HISPANIC OR LATINO","Y","Placebo","Pbo","Placebo","Pbo","Placebo","Placebo",2014-01-02,2014-01-02,"H",2014-07-02,2014-07-02 23:59:59,"H","COMPLETED",2014-07-02,NA,2014-01-02,2014-07-02,182,NA,NA,NA,2014-03-06,NA,"WEEK 9","Response by Investigator (confirmation not required)","RSP","Tumor Response","Investigator","RECIST 1.1",1,"Y","Y","Y",4,"WEEK 9","OVRLRESP","Overall Response","CR","CR","INVESTIGATOR",NA,NA,"2014-03-06",9,NA
"CDISCPILOT01","01-701-1023","1023","701","USA",NA,"2012-08-05","2012-09-02","2012-08-05","2012-09-01","2013-02-18",NA,2013-02-18,NA,NA,NA,NA,NA,NA,NA,NA,NA,1,"NA","2012-07-22",-14,64,"YEARS","18-64","M","WHITE","White","HISPANIC OR LATINO","Y","Placebo","Pbo","Placebo","Pbo","Placebo","Placebo",2012-08-05,2012-08-05,"H",2012-09-01,2012-09-01 23:59:59,"H","DISCONTINUED",2012-09-02,NA,2012-08-05,2012-09-02,28,NA,NA,NA,NA,NA,NA,"Best Overall Response of CR/PR by Investigator (confirmation not required)","BCP","Tumor Response","Investigator","RECIST 1.1",0,"N","Y",NA,NA,NA,NA,NA,NA,NA,NA,NA,NA,NA,NA,NA
"CDISCPILOT01","01-701-1023","1023","701","USA",NA,"2012-08-05","2012-09-02","2012-08-05","2012-09-01","2013-02-18",NA,2013-02-18,NA,NA,NA,NA,NA,NA,NA,NA,NA,2,"NA","2012-07-22",-14,64,"YEARS","18-64","M","WHITE","White","HISPANIC OR LATINO","Y","Placebo","Pbo","Placebo","Pbo","Placebo","Placebo",2012-08-05,2012-08-05,"H",2012-09-01,2012-09-01 23:59:59,"H","DISCONTINUED",2012-09-02,NA,2012-08-05,2012-09-02,28,NA,NA,NA,NA,NA,NA,"Best Overall Response by Investigator (confirmation not required)","BOR","Tumor Response","Investigator","RECIST 1.1",7,"MISSING","Y",NA,NA,NA,NA,NA,NA,NA,NA,NA,NA,NA,NA,NA
"CDISCPILOT01","01-701-1023","1023","701","USA",NA,"2012-08-05","2012-09-02","2012-08-05","2012-09-01","2013-02-18",NA,2013-02-18,NA,NA,NA,NA,NA,NA,NA,NA,NA,3,"NA","2012-07-22",-14,64,"YEARS","18-64","M","WHITE","White","HISPANIC OR LATINO","Y","Placebo","Pbo","Placebo","Pbo","Placebo","Placebo",2012-08-05,2012-08-05,"H",2012-09-01,2012-09-01 23:59:59,"H","DISCONTINUED",2012-09-02,NA,2012-08-05,2012-09-02,28,NA,NA,NA,NA,NA,NA,"Clinical Benefit by Investigator (confirmation for response not required)","CB","Tumor Response","Investigator","RECIST 1.1",0,"N","Y",NA,NA,NA,NA,NA,NA,NA,NA,NA,NA,NA,NA,NA
"CDISCPILOT01","01-701-1023","1023","701","USA",NA,"2012-08-05","2012-09-02","2012-08-05","2012-09-01","2013-02-18",NA,2013-02-18,NA,NA,NA,NA,NA,NA,NA,NA,NA,4,"NA","2012-07-22",-14,64,"YEARS","18-64","M","WHITE","White","HISPANIC OR LATINO","Y","Placebo","Pbo","Placebo","Pbo","Placebo","Placebo",2012-08-05,2012-08-05,"H",2012-09-01,2012-09-01 23:59:59,"H","DISCONTINUED",2012-09-02,NA,2012-08-05,2012-09-02,28,NA,NA,NA,NA,NA,NA,"Best Confirmed Overall Response of CR/PR by Investigator","CBCP","Tumor Response","Investigator","RECIST 1.1",0,"N","Y",NA,NA,NA,NA,NA,NA,NA,NA,NA,NA,NA,NA,NA
"CDISCPILOT01","01-701-1023","1023","701","USA",NA,"2012-08-05","2012-09-02","2012-08-05","2012-09-01","2013-02-18",NA,2013-02-18,NA,NA,NA,NA,NA,NA,NA,NA,NA,5,"NA","2012-07-22",-14,64,"YEARS","18-64","M","WHITE","White","HISPANIC OR LATINO","Y","Placebo","Pbo","Placebo","Pbo","Placebo","Placebo",2012-08-05,2012-08-05,"H",2012-09-01,2012-09-01 23:59:59,"H","DISCONTINUED",2012-09-02,NA,2012-08-05,2012-09-02,28,NA,NA,NA,NA,NA,NA,"Best Confirmed Overall Response by Investigator","CBOR","Tumor Response","Investigator","RECIST 1.1",7,"MISSING","Y",NA,NA,NA,NA,NA,NA,NA,NA,NA,NA,NA,NA,NA
"CDISCPILOT01","01-701-1023","1023","701","USA",NA,"2012-08-05","2012-09-02","2012-08-05","2012-09-01","2013-02-18",NA,2013-02-18,NA,NA,NA,NA,NA,NA,NA,NA,NA,6,"NA","2012-07-22",-14,64,"YEARS","18-64","M","WHITE","White","HISPANIC OR LATINO","Y","Placebo","Pbo","Placebo","Pbo","Placebo","Placebo",2012-08-05,2012-08-05,"H",2012-09-01,2012-09-01 23:59:59,"H","DISCONTINUED",2012-09-02,NA,2012-08-05,2012-09-02,28,NA,NA,NA,NA,NA,NA,"Confirmed Clinical Benefit by Investigator","CCB","Tumor Response","Investigator","RECIST 1.1",0,"N","Y",NA,NA,NA,NA,NA,NA,NA,NA,NA,NA,NA,NA,NA
"CDISCPILOT01","01-701-1023","1023","701","USA",NA,"2012-08-05","2012-09-02","2012-08-05","2012-09-01","2013-02-18",NA,2013-02-18,NA,NA,NA,NA,NA,NA,NA,NA,NA,7,"NA","2012-07-22",-14,64,"YEARS","18-64","M","WHITE","White","HISPANIC OR LATINO","Y","Placebo","Pbo","Placebo","Pbo","Placebo","Placebo",2012-08-05,2012-08-05,"H",2012-09-01,2012-09-01 23:59:59,"H","DISCONTINUED",2012-09-02,NA,2012-08-05,2012-09-02,28,NA,NA,NA,NA,NA,NA,"Confirmed Response by Investigator","CRSP","Tumor Response","Investigator","RECIST 1.1",0,"N","Y",NA,NA,NA,NA,NA,NA,NA,NA,NA,NA,NA,NA,NA
"CDISCPILOT01","01-701-1023","1023","701","USA",NA,"2012-08-05","2012-09-02","2012-08-05","2012-09-01","2013-02-18",NA,2013-02-18,NA,NA,NA,NA,NA,NA,NA,NA,NA,8,"NA","2012-07-22",-14,64,"YEARS","18-64","M","WHITE","White","HISPANIC OR LATINO","Y","Placebo","Pbo","Placebo","Pbo","Placebo","Placebo",2012-08-05,2012-08-05,"H",2012-09-01,2012-09-01 23:59:59,"H","DISCONTINUED",2012-09-02,NA,2012-08-05,2012-09-02,28,NA,NA,NA,NA,NA,NA,"Death","DEATH","Reference Event",NA,NA,0,"N","Y",NA,NA,NA,NA,NA,NA,NA,NA,NA,NA,NA,NA,NA
"CDISCPILOT01","01-701-1023","1023","701","USA",NA,"2012-08-05","2012-09-02","2012-08-05","2012-09-01","2013-02-18",NA,2013-02-18,NA,NA,NA,NA,NA,NA,NA,NA,NA,9,"NA","2012-07-22",-14,64,"YEARS","18-64","M","WHITE","White","HISPANIC OR LATINO","Y","Placebo","Pbo","Placebo","Pbo","Placebo","Placebo",2012-08-05,2012-08-05,"H",2012-09-01,2012-09-01 23:59:59,"H","DISCONTINUED",2012-09-02,NA,2012-08-05,2012-09-02,28,NA,NA,NA,NA,NA,NA,"Last Disease Assessment by Investigator","LSTA","Tumor Response","Investigator","RECIST 1.1",NA,NA,"Y",NA,NA,NA,NA,NA,NA,NA,NA,NA,NA,NA,NA,NA
"CDISCPILOT01","01-701-1023","1023","701","USA",NA,"2012-08-05","2012-09-02","2012-08-05","2012-09-01","2013-02-18",NA,2013-02-18,NA,NA,NA,NA,NA,NA,NA,NA,NA,10,"NA","2012-07-22",-14,64,"YEARS","18-64","M","WHITE","White","HISPANIC OR LATINO","Y","Placebo","Pbo","Placebo","Pbo","Placebo","Placebo",2012-08-05,2012-08-05,"H",2012-09-01,2012-09-01 23:59:59,"H","DISCONTINUED",2012-09-02,NA,NA,2012-09-02,28,NA,NA,NA,NA,NA,NA,"Measurable Disease at Baseline by Investigator","MDIS",NA,"Investigator","RECIST 1.1",0,"N","Y",NA,NA,NA,NA,NA,NA,NA,NA,NA,NA,NA,NA,NA
"CDISCPILOT01","01-701-1023","1023","701","USA",NA,"2012-08-05","2012-09-02","2012-08-05","2012-09-01","2013-02-18",NA,2013-02-18,NA,NA,NA,NA,NA,NA,NA,NA,NA,11,"NA","2012-07-22",-14,64,"YEARS","18-64","M","WHITE","White","HISPANIC OR LATINO","Y","Placebo","Pbo","Placebo","Pbo","Placebo","Placebo",2012-08-05,2012-08-05,"H",2012-09-01,2012-09-01 23:59:59,"H","DISCONTINUED",2012-09-02,NA,2012-08-05,2012-09-02,28,NA,NA,NA,NA,NA,NA,"Disease Progression by Investigator","PD","Tumor Response","Investigator","RECIST 1.1",0,"N","Y",NA,NA,NA,NA,NA,NA,NA,NA,NA,NA,NA,NA,NA
"CDISCPILOT01","01-701-1023","1023","701","USA",NA,"2012-08-05","2012-09-02","2012-08-05","2012-09-01","2013-02-18",NA,2013-02-18,NA,NA,NA,NA,NA,NA,NA,NA,NA,12,"NA","2012-07-22",-14,64,"YEARS","18-64","M","WHITE","White","HISPANIC OR LATINO","Y","Placebo","Pbo","Placebo","Pbo","Placebo","Placebo",2012-08-05,2012-08-05,"H",2012-09-01,2012-09-01 23:59:59,"H","DISCONTINUED",2012-09-02,NA,2012-08-05,2012-09-02,28,NA,NA,NA,NA,NA,NA,"Response by Investigator (confirmation not required)","RSP","Tumor Response","Investigator","RECIST 1.1",0,"N","Y",NA,NA,NA,NA,NA,NA,NA,NA,NA,NA,NA,NA,NA
"CDISCPILOT01","01-701-1028","1028","701","USA",NA,"2013-07-19","2014-01-14","2013-07-19","2014-01-14","2014-01-14T11:10",NA,NA,NA,NA,NA,NA,NA,NA,NA,NA,NA,1,"NA","2013-07-11",-8,71,"YEARS",">64","M","WHITE","White","NOT HISPANIC OR LATINO","Y","Xanomeline High Dose","Xan_Hi","Xanomeline High Dose","Xan_Hi","Xanomeline High Dose","Xanomeline High Dose",2013-07-19,2013-07-19,"H",2014-01-14,2014-01-14 23:59:59,"H","COMPLETED",2014-01-14,NA,2013-07-19,2014-01-14,180,NA,NA,NA,NA,NA,NA,"Best Overall Response of CR/PR by Investigator (confirmation not required)","BCP","Tumor Response","Investigator","RECIST 1.1",0,"N","Y",NA,NA,NA,NA,NA,NA,NA,NA,NA,NA,NA,NA,NA
"CDISCPILOT01","01-701-1028","1028","701","USA","RS","2013-07-19","2014-01-14","2013-07-19","2014-01-14","2014-01-14T11:10",NA,NA,NA,NA,NA,NA,NA,NA,NA,NA,NA,2,"NA","2013-07-11",-8,71,"YEARS",">64","M","WHITE","White","NOT HISPANIC OR LATINO","Y","Xanomeline High Dose","Xan_Hi","Xanomeline High Dose","Xan_Hi","Xanomeline High Dose","Xanomeline High Dose",2013-07-19,2013-07-19,"H",2014-01-14,2014-01-14 23:59:59,"H","COMPLETED",2014-01-14,NA,2013-07-19,2014-01-14,180,NA,NA,NA,2013-08-30,NA,"WEEK 6","Best Overall Response by Investigator (confirmation not required)","BOR","Tumor Response","Investigator","RECIST 1.1",5,"PD","Y","Y",3,"WEEK 6","OVRLRESP","Overall Response","PD","PD","INVESTIGATOR",NA,NA,"2013-08-30",6,NA
"CDISCPILOT01","01-701-1028","1028","701","USA",NA,"2013-07-19","2014-01-14","2013-07-19","2014-01-14","2014-01-14T11:10",NA,NA,NA,NA,NA,NA,NA,NA,NA,NA,NA,3,"NA","2013-07-11",-8,71,"YEARS",">64","M","WHITE","White","NOT HISPANIC OR LATINO","Y","Xanomeline High Dose","Xan_Hi","Xanomeline High Dose","Xan_Hi","Xanomeline High Dose","Xanomeline High Dose",2013-07-19,2013-07-19,"H",2014-01-14,2014-01-14 23:59:59,"H","COMPLETED",2014-01-14,NA,2013-07-19,2014-01-14,180,NA,NA,NA,NA,NA,NA,"Clinical Benefit by Investigator (confirmation for response not required)","CB","Tumor Response","Investigator","RECIST 1.1",0,"N","Y",NA,NA,NA,NA,NA,NA,NA,NA,NA,NA,NA,NA,NA
"CDISCPILOT01","01-701-1028","1028","701","USA",NA,"2013-07-19","2014-01-14","2013-07-19","2014-01-14","2014-01-14T11:10",NA,NA,NA,NA,NA,NA,NA,NA,NA,NA,NA,4,"NA","2013-07-11",-8,71,"YEARS",">64","M","WHITE","White","NOT HISPANIC OR LATINO","Y","Xanomeline High Dose","Xan_Hi","Xanomeline High Dose","Xan_Hi","Xanomeline High Dose","Xanomeline High Dose",2013-07-19,2013-07-19,"H",2014-01-14,2014-01-14 23:59:59,"H","COMPLETED",2014-01-14,NA,2013-07-19,2014-01-14,180,NA,NA,NA,NA,NA,NA,"Best Confirmed Overall Response of CR/PR by Investigator","CBCP","Tumor Response","Investigator","RECIST 1.1",0,"N","Y",NA,NA,NA,NA,NA,NA,NA,NA,NA,NA,NA,NA,NA
"CDISCPILOT01","01-701-1028","1028","701","USA","RS","2013-07-19","2014-01-14","2013-07-19","2014-01-14","2014-01-14T11:10",NA,NA,NA,NA,NA,NA,NA,NA,NA,NA,NA,5,"NA","2013-07-11",-8,71,"YEARS",">64","M","WHITE","White","NOT HISPANIC OR LATINO","Y","Xanomeline High Dose","Xan_Hi","Xanomeline High Dose","Xan_Hi","Xanomeline High Dose","Xanomeline High Dose",2013-07-19,2013-07-19,"H",2014-01-14,2014-01-14 23:59:59,"H","COMPLETED",2014-01-14,NA,2013-07-19,2014-01-14,180,NA,NA,NA,2013-08-30,NA,"WEEK 6","Best Confirmed Overall Response by Investigator","CBOR","Tumor Response","Investigator","RECIST 1.1",5,"PD","Y","Y",3,"WEEK 6","OVRLRESP","Overall Response","PD","PD","INVESTIGATOR",NA,NA,"2013-08-30",6,NA
"CDISCPILOT01","01-701-1028","1028","701","USA",NA,"2013-07-19","2014-01-14","2013-07-19","2014-01-14","2014-01-14T11:10",NA,NA,NA,NA,NA,NA,NA,NA,NA,NA,NA,6,"NA","2013-07-11",-8,71,"YEARS",">64","M","WHITE","White","NOT HISPANIC OR LATINO","Y","Xanomeline High Dose","Xan_Hi","Xanomeline High Dose","Xan_Hi","Xanomeline High Dose","Xanomeline High Dose",2013-07-19,2013-07-19,"H",2014-01-14,2014-01-14 23:59:59,"H","COMPLETED",2014-01-14,NA,2013-07-19,2014-01-14,180,NA,NA,NA,NA,NA,NA,"Confirmed Clinical Benefit by Investigator","CCB","Tumor Response","Investigator","RECIST 1.1",0,"N","Y",NA,NA,NA,NA,NA,NA,NA,NA,NA,NA,NA,NA,NA
"CDISCPILOT01","01-701-1028","1028","701","USA",NA,"2013-07-19","2014-01-14","2013-07-19","2014-01-14","2014-01-14T11:10",NA,NA,NA,NA,NA,NA,NA,NA,NA,NA,NA,7,"NA","2013-07-11",-8,71,"YEARS",">64","M","WHITE","White","NOT HISPANIC OR LATINO","Y","Xanomeline High Dose","Xan_Hi","Xanomeline High Dose","Xan_Hi","Xanomeline High Dose","Xanomeline High Dose",2013-07-19,2013-07-19,"H",2014-01-14,2014-01-14 23:59:59,"H","COMPLETED",2014-01-14,NA,2013-07-19,2014-01-14,180,NA,NA,NA,NA,NA,NA,"Confirmed Response by Investigator","CRSP","Tumor Response","Investigator","RECIST 1.1",0,"N","Y",NA,NA,NA,NA,NA,NA,NA,NA,NA,NA,NA,NA,NA
"CDISCPILOT01","01-701-1028","1028","701","USA",NA,"2013-07-19","2014-01-14","2013-07-19","2014-01-14","2014-01-14T11:10",NA,NA,NA,NA,NA,NA,NA,NA,NA,NA,NA,8,"NA","2013-07-11",-8,71,"YEARS",">64","M","WHITE","White","NOT HISPANIC OR LATINO","Y","Xanomeline High Dose","Xan_Hi","Xanomeline High Dose","Xan_Hi","Xanomeline High Dose","Xanomeline High Dose",2013-07-19,2013-07-19,"H",2014-01-14,2014-01-14 23:59:59,"H","COMPLETED",2014-01-14,NA,2013-07-19,2014-01-14,180,NA,NA,NA,NA,NA,NA,"Death","DEATH","Reference Event",NA,NA,0,"N","Y",NA,NA,NA,NA,NA,NA,NA,NA,NA,NA,NA,NA,NA
"CDISCPILOT01","01-701-1028","1028","701","USA","RS","2013-07-19","2014-01-14","2013-07-19","2014-01-14","2014-01-14T11:10",NA,NA,NA,NA,NA,NA,NA,NA,NA,NA,NA,9,"NA","2013-07-11",-8,71,"YEARS",">64","M","WHITE","White","NOT HISPANIC OR LATINO","Y","Xanomeline High Dose","Xan_Hi","Xanomeline High Dose","Xan_Hi","Xanomeline High Dose","Xanomeline High Dose",2013-07-19,2013-07-19,"H",2014-01-14,2014-01-14 23:59:59,"H","COMPLETED",2014-01-14,NA,2013-07-19,2014-01-14,180,NA,NA,NA,2013-09-20,NA,"WEEK 9","Last Disease Assessment by Investigator","LSTA","Tumor Response","Investigator","RECIST 1.1",3,"SD","Y",NA,4,"WEEK 9","OVRLRESP","Overall Response","SD","SD","INVESTIGATOR",NA,NA,"2013-09-20",9,NA
"CDISCPILOT01","01-701-1028","1028","701","USA",NA,"2013-07-19","2014-01-14","2013-07-19","2014-01-14","2014-01-14T11:10",NA,NA,NA,NA,NA,NA,NA,NA,NA,NA,NA,10,"NA","2013-07-11",-8,71,"YEARS",">64","M","WHITE","White","NOT HISPANIC OR LATINO","Y","Xanomeline High Dose","Xan_Hi","Xanomeline High Dose","Xan_Hi","Xanomeline High Dose","Xanomeline High Dose",2013-07-19,2013-07-19,"H",2014-01-14,2014-01-14 23:59:59,"H","COMPLETED",2014-01-14,NA,NA,2014-01-14,180,NA,NA,NA,NA,NA,NA,"Measurable Disease at Baseline by Investigator","MDIS",NA,"Investigator","RECIST 1.1",1,"Y","Y",NA,NA,NA,NA,NA,NA,NA,NA,NA,NA,NA,NA,NA
"CDISCPILOT01","01-701-1028","1028","701","USA","RS","2013-07-19","2014-01-14","2013-07-19","2014-01-14","2014-01-14T11:10",NA,NA,NA,NA,NA,NA,NA,NA,NA,NA,NA,11,"NA","2013-07-11",-8,71,"YEARS",">64","M","WHITE","White","NOT HISPANIC OR LATINO","Y","Xanomeline High Dose","Xan_Hi","Xanomeline High Dose","Xan_Hi","Xanomeline High Dose","Xanomeline High Dose",2013-07-19,2013-07-19,"H",2014-01-14,2014-01-14 23:59:59,"H","COMPLETED",2014-01-14,NA,2013-07-19,2014-01-14,180,NA,NA,NA,2013-08-09,NA,"WEEK 3","Overall Response by Investigator","OVR","Tumor Response","Investigator","RECIST 1.1",3,"SD","Y","Y",2,"WEEK 3","OVRLRESP","Overall Response","SD","SD","INVESTIGATOR",NA,NA,"2013-08-09",3,NA
"CDISCPILOT01","01-701-1028","1028","701","USA","RS","2013-07-19","2014-01-14","2013-07-19","2014-01-14","2014-01-14T11:10",NA,NA,NA,NA,NA,NA,NA,NA,NA,NA,NA,12,"NA","2013-07-11",-8,71,"YEARS",">64","M","WHITE","White","NOT HISPANIC OR LATINO","Y","Xanomeline High Dose","Xan_Hi","Xanomeline High Dose","Xan_Hi","Xanomeline High Dose","Xanomeline High Dose",2013-07-19,2013-07-19,"H",2014-01-14,2014-01-14 23:59:59,"H","COMPLETED",2014-01-14,NA,2013-07-19,2014-01-14,180,NA,NA,NA,2013-08-30,NA,"WEEK 6","Overall Response by Investigator","OVR","Tumor Response","Investigator","RECIST 1.1",5,"PD","Y","Y",3,"WEEK 6","OVRLRESP","Overall Response","PD","PD","INVESTIGATOR",NA,NA,"2013-08-30",6,NA
"CDISCPILOT01","01-701-1028","1028","701","USA","RS","2013-07-19","2014-01-14","2013-07-19","2014-01-14","2014-01-14T11:10",NA,NA,NA,NA,NA,NA,NA,NA,NA,NA,NA,13,"NA","2013-07-11",-8,71,"YEARS",">64","M","WHITE","White","NOT HISPANIC OR LATINO","Y","Xanomeline High Dose","Xan_Hi","Xanomeline High Dose","Xan_Hi","Xanomeline High Dose","Xanomeline High Dose",2013-07-19,2013-07-19,"H",2014-01-14,2014-01-14 23:59:59,"H","COMPLETED",2014-01-14,NA,2013-07-19,2014-01-14,180,NA,NA,NA,2013-09-20,NA,"WEEK 9","Overall Response by Investigator","OVR","Tumor Response","Investigator","RECIST 1.1",3,"SD","Y",NA,4,"WEEK 9","OVRLRESP","Overall Response","SD","SD","INVESTIGATOR",NA,NA,"2013-09-20",9,NA
"CDISCPILOT01","01-701-1028","1028","701","USA","RS","2013-07-19","2014-01-14","2013-07-19","2014-01-14","2014-01-14T11:10",NA,NA,NA,NA,NA,NA,NA,NA,NA,NA,NA,14,"NA","2013-07-11",-8,71,"YEARS",">64","M","WHITE","White","NOT HISPANIC OR LATINO","Y","Xanomeline High Dose","Xan_Hi","Xanomeline High Dose","Xan_Hi","Xanomeline High Dose","Xanomeline High Dose",2013-07-19,2013-07-19,"H",2014-01-14,2014-01-14 23:59:59,"H","COMPLETED",2014-01-14,NA,2013-07-19,2014-01-14,180,NA,NA,NA,2013-08-30,NA,"WEEK 6","Disease Progression by Investigator","PD","Tumor Response","Investigator","RECIST 1.1",1,"Y","Y","Y",3,"WEEK 6","OVRLRESP","Overall Response","PD","PD","INVESTIGATOR",NA,NA,"2013-08-30",6,NA
"CDISCPILOT01","01-701-1028","1028","701","USA",NA,"2013-07-19","2014-01-14","2013-07-19","2014-01-14","2014-01-14T11:10",NA,NA,NA,NA,NA,NA,NA,NA,NA,NA,NA,15,"NA","2013-07-11",-8,71,"YEARS",">64","M","WHITE","White","NOT HISPANIC OR LATINO","Y","Xanomeline High Dose","Xan_Hi","Xanomeline High Dose","Xan_Hi","Xanomeline High Dose","Xanomeline High Dose",2013-07-19,2013-07-19,"H",2014-01-14,2014-01-14 23:59:59,"H","COMPLETED",2014-01-14,NA,2013-07-19,2014-01-14,180,NA,NA,NA,NA,NA,NA,"Response by Investigator (confirmation not required)","RSP","Tumor Response","Investigator","RECIST 1.1",0,"N","Y",NA,NA,NA,NA,NA,NA,NA,NA,NA,NA,NA,NA,NA
"CDISCPILOT01","01-701-1033","1033","701","USA",NA,"2014-03-18","2014-04-14","2014-03-18","2014-03-31","2014-09-15",NA,2014-09-15,NA,NA,NA,NA,NA,NA,NA,NA,NA,1,"NA","2014-03-10",-8,74,"YEARS",">64","M","WHITE","White","NOT HISPANIC OR LATINO","Y","Xanomeline Low Dose","Xan_Lo","Xanomeline Low Dose","Xan_Lo","Xanomeline Low Dose","Xanomeline Low Dose",2014-03-18,2014-03-18,"H",2014-03-31,2014-03-31 23:59:59,"H","DISCONTINUED",2014-04-14,NA,2014-03-18,2014-04-14,14,NA,NA,NA,NA,NA,NA,"Best Overall Response of CR/PR by Investigator (confirmation not required)","BCP","Tumor Response","Investigator","RECIST 1.1",0,"N","Y",NA,NA,NA,NA,NA,NA,NA,NA,NA,NA,NA,NA,NA
"CDISCPILOT01","01-701-1033","1033","701","USA",NA,"2014-03-18","2014-04-14","2014-03-18","2014-03-31","2014-09-15",NA,2014-09-15,NA,NA,NA,NA,NA,NA,NA,NA,NA,2,"NA","2014-03-10",-8,74,"YEARS",">64","M","WHITE","White","NOT HISPANIC OR LATINO","Y","Xanomeline Low Dose","Xan_Lo","Xanomeline Low Dose","Xan_Lo","Xanomeline Low Dose","Xanomeline Low Dose",2014-03-18,2014-03-18,"H",2014-03-31,2014-03-31 23:59:59,"H","DISCONTINUED",2014-04-14,NA,2014-03-18,2014-04-14,14,NA,NA,NA,NA,NA,NA,"Best Overall Response by Investigator (confirmation not required)","BOR","Tumor Response","Investigator","RECIST 1.1",7,"MISSING","Y",NA,NA,NA,NA,NA,NA,NA,NA,NA,NA,NA,NA,NA
"CDISCPILOT01","01-701-1033","1033","701","USA",NA,"2014-03-18","2014-04-14","2014-03-18","2014-03-31","2014-09-15",NA,2014-09-15,NA,NA,NA,NA,NA,NA,NA,NA,NA,3,"NA","2014-03-10",-8,74,"YEARS",">64","M","WHITE","White","NOT HISPANIC OR LATINO","Y","Xanomeline Low Dose","Xan_Lo","Xanomeline Low Dose","Xan_Lo","Xanomeline Low Dose","Xanomeline Low Dose",2014-03-18,2014-03-18,"H",2014-03-31,2014-03-31 23:59:59,"H","DISCONTINUED",2014-04-14,NA,2014-03-18,2014-04-14,14,NA,NA,NA,NA,NA,NA,"Clinical Benefit by Investigator (confirmation for response not required)","CB","Tumor Response","Investigator","RECIST 1.1",0,"N","Y",NA,NA,NA,NA,NA,NA,NA,NA,NA,NA,NA,NA,NA
"CDISCPILOT01","01-701-1033","1033","701","USA",NA,"2014-03-18","2014-04-14","2014-03-18","2014-03-31","2014-09-15",NA,2014-09-15,NA,NA,NA,NA,NA,NA,NA,NA,NA,4,"NA","2014-03-10",-8,74,"YEARS",">64","M","WHITE","White","NOT HISPANIC OR LATINO","Y","Xanomeline Low Dose","Xan_Lo","Xanomeline Low Dose","Xan_Lo","Xanomeline Low Dose","Xanomeline Low Dose",2014-03-18,2014-03-18,"H",2014-03-31,2014-03-31 23:59:59,"H","DISCONTINUED",2014-04-14,NA,2014-03-18,2014-04-14,14,NA,NA,NA,NA,NA,NA,"Best Confirmed Overall Response of CR/PR by Investigator","CBCP","Tumor Response","Investigator","RECIST 1.1",0,"N","Y",NA,NA,NA,NA,NA,NA,NA,NA,NA,NA,NA,NA,NA
"CDISCPILOT01","01-701-1033","1033","701","USA",NA,"2014-03-18","2014-04-14","2014-03-18","2014-03-31","2014-09-15",NA,2014-09-15,NA,NA,NA,NA,NA,NA,NA,NA,NA,5,"NA","2014-03-10",-8,74,"YEARS",">64","M","WHITE","White","NOT HISPANIC OR LATINO","Y","Xanomeline Low Dose","Xan_Lo","Xanomeline Low Dose","Xan_Lo","Xanomeline Low Dose","Xanomeline Low Dose",2014-03-18,2014-03-18,"H",2014-03-31,2014-03-31 23:59:59,"H","DISCONTINUED",2014-04-14,NA,2014-03-18,2014-04-14,14,NA,NA,NA,NA,NA,NA,"Best Confirmed Overall Response by Investigator","CBOR","Tumor Response","Investigator","RECIST 1.1",7,"MISSING","Y",NA,NA,NA,NA,NA,NA,NA,NA,NA,NA,NA,NA,NA
"CDISCPILOT01","01-701-1033","1033","701","USA",NA,"2014-03-18","2014-04-14","2014-03-18","2014-03-31","2014-09-15",NA,2014-09-15,NA,NA,NA,NA,NA,NA,NA,NA,NA,6,"NA","2014-03-10",-8,74,"YEARS",">64","M","WHITE","White","NOT HISPANIC OR LATINO","Y","Xanomeline Low Dose","Xan_Lo","Xanomeline Low Dose","Xan_Lo","Xanomeline Low Dose","Xanomeline Low Dose",2014-03-18,2014-03-18,"H",2014-03-31,2014-03-31 23:59:59,"H","DISCONTINUED",2014-04-14,NA,2014-03-18,2014-04-14,14,NA,NA,NA,NA,NA,NA,"Confirmed Clinical Benefit by Investigator","CCB","Tumor Response","Investigator","RECIST 1.1",0,"N","Y",NA,NA,NA,NA,NA,NA,NA,NA,NA,NA,NA,NA,NA
"CDISCPILOT01","01-701-1033","1033","701","USA",NA,"2014-03-18","2014-04-14","2014-03-18","2014-03-31","2014-09-15",NA,2014-09-15,NA,NA,NA,NA,NA,NA,NA,NA,NA,7,"NA","2014-03-10",-8,74,"YEARS",">64","M","WHITE","White","NOT HISPANIC OR LATINO","Y","Xanomeline Low Dose","Xan_Lo","Xanomeline Low Dose","Xan_Lo","Xanomeline Low Dose","Xanomeline Low Dose",2014-03-18,2014-03-18,"H",2014-03-31,2014-03-31 23:59:59,"H","DISCONTINUED",2014-04-14,NA,2014-03-18,2014-04-14,14,NA,NA,NA,NA,NA,NA,"Confirmed Response by Investigator","CRSP","Tumor Response","Investigator","RECIST 1.1",0,"N","Y",NA,NA,NA,NA,NA,NA,NA,NA,NA,NA,NA,NA,NA
"CDISCPILOT01","01-701-1033","1033","701","USA",NA,"2014-03-18","2014-04-14","2014-03-18","2014-03-31","2014-09-15",NA,2014-09-15,NA,NA,NA,NA,NA,NA,NA,NA,NA,8,"NA","2014-03-10",-8,74,"YEARS",">64","M","WHITE","White","NOT HISPANIC OR LATINO","Y","Xanomeline Low Dose","Xan_Lo","Xanomeline Low Dose","Xan_Lo","Xanomeline Low Dose","Xanomeline Low Dose",2014-03-18,2014-03-18,"H",2014-03-31,2014-03-31 23:59:59,"H","DISCONTINUED",2014-04-14,NA,2014-03-18,2014-04-14,14,NA,NA,NA,NA,NA,NA,"Death","DEATH","Reference Event",NA,NA,0,"N","Y",NA,NA,NA,NA,NA,NA,NA,NA,NA,NA,NA,NA,NA
"CDISCPILOT01","01-701-1033","1033","701","USA",NA,"2014-03-18","2014-04-14","2014-03-18","2014-03-31","2014-09-15",NA,2014-09-15,NA,NA,NA,NA,NA,NA,NA,NA,NA,9,"NA","2014-03-10",-8,74,"YEARS",">64","M","WHITE","White","NOT HISPANIC OR LATINO","Y","Xanomeline Low Dose","Xan_Lo","Xanomeline Low Dose","Xan_Lo","Xanomeline Low Dose","Xanomeline Low Dose",2014-03-18,2014-03-18,"H",2014-03-31,2014-03-31 23:59:59,"H","DISCONTINUED",2014-04-14,NA,2014-03-18,2014-04-14,14,NA,NA,NA,NA,NA,NA,"Last Disease Assessment by Investigator","LSTA","Tumor Response","Investigator","RECIST 1.1",NA,NA,"Y",NA,NA,NA,NA,NA,NA,NA,NA,NA,NA,NA,NA,NA
"CDISCPILOT01","01-701-1033","1033","701","USA",NA,"2014-03-18","2014-04-14","2014-03-18","2014-03-31","2014-09-15",NA,2014-09-15,NA,NA,NA,NA,NA,NA,NA,NA,NA,10,"NA","2014-03-10",-8,74,"YEARS",">64","M","WHITE","White","NOT HISPANIC OR LATINO","Y","Xanomeline Low Dose","Xan_Lo","Xanomeline Low Dose","Xan_Lo","Xanomeline Low Dose","Xanomeline Low Dose",2014-03-18,2014-03-18,"H",2014-03-31,2014-03-31 23:59:59,"H","DISCONTINUED",2014-04-14,NA,NA,2014-04-14,14,NA,NA,NA,NA,NA,NA,"Measurable Disease at Baseline by Investigator","MDIS",NA,"Investigator","RECIST 1.1",0,"N","Y",NA,NA,NA,NA,NA,NA,NA,NA,NA,NA,NA,NA,NA
"CDISCPILOT01","01-701-1033","1033","701","USA",NA,"2014-03-18","2014-04-14","2014-03-18","2014-03-31","2014-09-15",NA,2014-09-15,NA,NA,NA,NA,NA,NA,NA,NA,NA,11,"NA","2014-03-10",-8,74,"YEARS",">64","M","WHITE","White","NOT HISPANIC OR LATINO","Y","Xanomeline Low Dose","Xan_Lo","Xanomeline Low Dose","Xan_Lo","Xanomeline Low Dose","Xanomeline Low Dose",2014-03-18,2014-03-18,"H",2014-03-31,2014-03-31 23:59:59,"H","DISCONTINUED",2014-04-14,NA,2014-03-18,2014-04-14,14,NA,NA,NA,NA,NA,NA,"Disease Progression by Investigator","PD","Tumor Response","Investigator","RECIST 1.1",0,"N","Y",NA,NA,NA,NA,NA,NA,NA,NA,NA,NA,NA,NA,NA
"CDISCPILOT01","01-701-1033","1033","701","USA",NA,"2014-03-18","2014-04-14","2014-03-18","2014-03-31","2014-09-15",NA,2014-09-15,NA,NA,NA,NA,NA,NA,NA,NA,NA,12,"NA","2014-03-10",-8,74,"YEARS",">64","M","WHITE","White","NOT HISPANIC OR LATINO","Y","Xanomeline Low Dose","Xan_Lo","Xanomeline Low Dose","Xan_Lo","Xanomeline Low Dose","Xanomeline Low Dose",2014-03-18,2014-03-18,"H",2014-03-31,2014-03-31 23:59:59,"H","DISCONTINUED",2014-04-14,NA,2014-03-18,2014-04-14,14,NA,NA,NA,NA,NA,NA,"Response by Investigator (confirmation not required)","RSP","Tumor Response","Investigator","RECIST 1.1",0,"N","Y",NA,NA,NA,NA,NA,NA,NA,NA,NA,NA,NA,NA,NA
"CDISCPILOT01","01-701-1034","1034","701","USA",NA,"2014-07-01","2014-12-30","2014-07-01","2014-12-30","2014-12-30T09:50",NA,NA,NA,NA,NA,NA,NA,NA,NA,NA,NA,1,"NA","2014-06-24",-7,77,"YEARS",">64","F","WHITE","White","NOT HISPANIC OR LATINO","Y","Xanomeline High Dose","Xan_Hi","Xanomeline High Dose","Xan_Hi","Xanomeline High Dose","Xanomeline High Dose",2014-07-01,2014-07-01,"H",2014-12-30,2014-12-30 23:59:59,"H","COMPLETED",2014-12-30,NA,2014-07-01,2014-12-30,183,NA,NA,NA,NA,NA,NA,"Best Overall Response of CR/PR by Investigator (confirmation not required)","BCP","Tumor Response","Investigator","RECIST 1.1",0,"N","Y",NA,NA,NA,NA,NA,NA,NA,NA,NA,NA,NA,NA,NA
"CDISCPILOT01","01-701-1034","1034","701","USA","RS","2014-07-01","2014-12-30","2014-07-01","2014-12-30","2014-12-30T09:50",NA,NA,NA,NA,NA,NA,NA,NA,NA,NA,NA,2,"NA","2014-06-24",-7,77,"YEARS",">64","F","WHITE","White","NOT HISPANIC OR LATINO","Y","Xanomeline High Dose","Xan_Hi","Xanomeline High Dose","Xan_Hi","Xanomeline High Dose","Xanomeline High Dose",2014-07-01,2014-07-01,"H",2014-12-30,2014-12-30 23:59:59,"H","COMPLETED",2014-12-30,NA,2014-07-01,2014-12-30,183,NA,NA,NA,2014-08-12,NA,"WEEK 6","Best Overall Response by Investigator (confirmation not required)","BOR","Tumor Response","Investigator","RECIST 1.1",4,"NON-CR/NON-PD","Y","Y",3,"WEEK 6","OVRLRESP","Overall Response","NON-CR/NON-PD","NON-CR/NON-PD","INVESTIGATOR",NA,NA,"2014-08-12",6,NA
"CDISCPILOT01","01-701-1034","1034","701","USA","RS","2014-07-01","2014-12-30","2014-07-01","2014-12-30","2014-12-30T09:50",NA,NA,NA,NA,NA,NA,NA,NA,NA,NA,NA,3,"NA","2014-06-24",-7,77,"YEARS",">64","F","WHITE","White","NOT HISPANIC OR LATINO","Y","Xanomeline High Dose","Xan_Hi","Xanomeline High Dose","Xan_Hi","Xanomeline High Dose","Xanomeline High Dose",2014-07-01,2014-07-01,"H",2014-12-30,2014-12-30 23:59:59,"H","COMPLETED",2014-12-30,NA,2014-07-01,2014-12-30,183,NA,NA,NA,2014-08-12,NA,"WEEK 6","Clinical Benefit by Investigator (confirmation for response not required)","CB","Tumor Response","Investigator","RECIST 1.1",1,"Y","Y","Y",3,"WEEK 6","OVRLRESP","Overall Response","NON-CR/NON-PD","NON-CR/NON-PD","INVESTIGATOR",NA,NA,"2014-08-12",6,NA
"CDISCPILOT01","01-701-1034","1034","701","USA",NA,"2014-07-01","2014-12-30","2014-07-01","2014-12-30","2014-12-30T09:50",NA,NA,NA,NA,NA,NA,NA,NA,NA,NA,NA,4,"NA","2014-06-24",-7,77,"YEARS",">64","F","WHITE","White","NOT HISPANIC OR LATINO","Y","Xanomeline High Dose","Xan_Hi","Xanomeline High Dose","Xan_Hi","Xanomeline High Dose","Xanomeline High Dose",2014-07-01,2014-07-01,"H",2014-12-30,2014-12-30 23:59:59,"H","COMPLETED",2014-12-30,NA,2014-07-01,2014-12-30,183,NA,NA,NA,NA,NA,NA,"Best Confirmed Overall Response of CR/PR by Investigator","CBCP","Tumor Response","Investigator","RECIST 1.1",0,"N","Y",NA,NA,NA,NA,NA,NA,NA,NA,NA,NA,NA,NA,NA
"CDISCPILOT01","01-701-1034","1034","701","USA","RS","2014-07-01","2014-12-30","2014-07-01","2014-12-30","2014-12-30T09:50",NA,NA,NA,NA,NA,NA,NA,NA,NA,NA,NA,5,"NA","2014-06-24",-7,77,"YEARS",">64","F","WHITE","White","NOT HISPANIC OR LATINO","Y","Xanomeline High Dose","Xan_Hi","Xanomeline High Dose","Xan_Hi","Xanomeline High Dose","Xanomeline High Dose",2014-07-01,2014-07-01,"H",2014-12-30,2014-12-30 23:59:59,"H","COMPLETED",2014-12-30,NA,2014-07-01,2014-12-30,183,NA,NA,NA,2014-08-12,NA,"WEEK 6","Best Confirmed Overall Response by Investigator","CBOR","Tumor Response","Investigator","RECIST 1.1",4,"NON-CR/NON-PD","Y","Y",3,"WEEK 6","OVRLRESP","Overall Response","NON-CR/NON-PD","NON-CR/NON-PD","INVESTIGATOR",NA,NA,"2014-08-12",6,NA
"CDISCPILOT01","01-701-1034","1034","701","USA","RS","2014-07-01","2014-12-30","2014-07-01","2014-12-30","2014-12-30T09:50",NA,NA,NA,NA,NA,NA,NA,NA,NA,NA,NA,6,"NA","2014-06-24",-7,77,"YEARS",">64","F","WHITE","White","NOT HISPANIC OR LATINO","Y","Xanomeline High Dose","Xan_Hi","Xanomeline High Dose","Xan_Hi","Xanomeline High Dose","Xanomeline High Dose",2014-07-01,2014-07-01,"H",2014-12-30,2014-12-30 23:59:59,"H","COMPLETED",2014-12-30,NA,2014-07-01,2014-12-30,183,NA,NA,NA,2014-08-12,NA,"WEEK 6","Confirmed Clinical Benefit by Investigator","CCB","Tumor Response","Investigator","RECIST 1.1",1,"Y","Y","Y",3,"WEEK 6","OVRLRESP","Overall Response","NON-CR/NON-PD","NON-CR/NON-PD","INVESTIGATOR",NA,NA,"2014-08-12",6,NA
"CDISCPILOT01","01-701-1034","1034","701","USA",NA,"2014-07-01","2014-12-30","2014-07-01","2014-12-30","2014-12-30T09:50",NA,NA,NA,NA,NA,NA,NA,NA,NA,NA,NA,7,"NA","2014-06-24",-7,77,"YEARS",">64","F","WHITE","White","NOT HISPANIC OR LATINO","Y","Xanomeline High Dose","Xan_Hi","Xanomeline High Dose","Xan_Hi","Xanomeline High Dose","Xanomeline High Dose",2014-07-01,2014-07-01,"H",2014-12-30,2014-12-30 23:59:59,"H","COMPLETED",2014-12-30,NA,2014-07-01,2014-12-30,183,NA,NA,NA,NA,NA,NA,"Confirmed Response by Investigator","CRSP","Tumor Response","Investigator","RECIST 1.1",0,"N","Y",NA,NA,NA,NA,NA,NA,NA,NA,NA,NA,NA,NA,NA
"CDISCPILOT01","01-701-1034","1034","701","USA",NA,"2014-07-01","2014-12-30","2014-07-01","2014-12-30","2014-12-30T09:50",NA,NA,NA,NA,NA,NA,NA,NA,NA,NA,NA,8,"NA","2014-06-24",-7,77,"YEARS",">64","F","WHITE","White","NOT HISPANIC OR LATINO","Y","Xanomeline High Dose","Xan_Hi","Xanomeline High Dose","Xan_Hi","Xanomeline High Dose","Xanomeline High Dose",2014-07-01,2014-07-01,"H",2014-12-30,2014-12-30 23:59:59,"H","COMPLETED",2014-12-30,NA,2014-07-01,2014-12-30,183,NA,NA,NA,NA,NA,NA,"Death","DEATH","Reference Event",NA,NA,0,"N","Y",NA,NA,NA,NA,NA,NA,NA,NA,NA,NA,NA,NA,NA
"CDISCPILOT01","01-701-1034","1034","701","USA","RS","2014-07-01","2014-12-30","2014-07-01","2014-12-30","2014-12-30T09:50",NA,NA,NA,NA,NA,NA,NA,NA,NA,NA,NA,9,"NA","2014-06-24",-7,77,"YEARS",">64","F","WHITE","White","NOT HISPANIC OR LATINO","Y","Xanomeline High Dose","Xan_Hi","Xanomeline High Dose","Xan_Hi","Xanomeline High Dose","Xanomeline High Dose",2014-07-01,2014-07-01,"H",2014-12-30,2014-12-30 23:59:59,"H","COMPLETED",2014-12-30,NA,2014-07-01,2014-12-30,183,NA,NA,NA,2014-08-12,NA,"WEEK 6","Last Disease Assessment by Investigator","LSTA","Tumor Response","Investigator","RECIST 1.1",4,"NON-CR/NON-PD","Y","Y",3,"WEEK 6","OVRLRESP","Overall Response","NON-CR/NON-PD","NON-CR/NON-PD","INVESTIGATOR",NA,NA,"2014-08-12",6,NA
"CDISCPILOT01","01-701-1034","1034","701","USA",NA,"2014-07-01","2014-12-30","2014-07-01","2014-12-30","2014-12-30T09:50",NA,NA,NA,NA,NA,NA,NA,NA,NA,NA,NA,10,"NA","2014-06-24",-7,77,"YEARS",">64","F","WHITE","White","NOT HISPANIC OR LATINO","Y","Xanomeline High Dose","Xan_Hi","Xanomeline High Dose","Xan_Hi","Xanomeline High Dose","Xanomeline High Dose",2014-07-01,2014-07-01,"H",2014-12-30,2014-12-30 23:59:59,"H","COMPLETED",2014-12-30,NA,NA,2014-12-30,183,NA,NA,NA,NA,NA,NA,"Measurable Disease at Baseline by Investigator","MDIS",NA,"Investigator","RECIST 1.1",0,"N","Y",NA,NA,NA,NA,NA,NA,NA,NA,NA,NA,NA,NA,NA
"CDISCPILOT01","01-701-1034","1034","701","USA","RS","2014-07-01","2014-12-30","2014-07-01","2014-12-30","2014-12-30T09:50",NA,NA,NA,NA,NA,NA,NA,NA,NA,NA,NA,11,"NA","2014-06-24",-7,77,"YEARS",">64","F","WHITE","White","NOT HISPANIC OR LATINO","Y","Xanomeline High Dose","Xan_Hi","Xanomeline High Dose","Xan_Hi","Xanomeline High Dose","Xanomeline High Dose",2014-07-01,2014-07-01,"H",2014-12-30,2014-12-30 23:59:59,"H","COMPLETED",2014-12-30,NA,2014-07-01,2014-12-30,183,NA,NA,NA,2014-07-22,NA,"WEEK 3","Overall Response by Investigator","OVR","Tumor Response","Investigator","RECIST 1.1",4,"NON-CR/NON-PD","Y","Y",2,"WEEK 3","OVRLRESP","Overall Response","NON-CR/NON-PD","NON-CR/NON-PD","INVESTIGATOR",NA,NA,"2014-07-22",3,NA
"CDISCPILOT01","01-701-1034","1034","701","USA","RS","2014-07-01","2014-12-30","2014-07-01","2014-12-30","2014-12-30T09:50",NA,NA,NA,NA,NA,NA,NA,NA,NA,NA,NA,12,"NA","2014-06-24",-7,77,"YEARS",">64","F","WHITE","White","NOT HISPANIC OR LATINO","Y","Xanomeline High Dose","Xan_Hi","Xanomeline High Dose","Xan_Hi","Xanomeline High Dose","Xanomeline High Dose",2014-07-01,2014-07-01,"H",2014-12-30,2014-12-30 23:59:59,"H","COMPLETED",2014-12-30,NA,2014-07-01,2014-12-30,183,NA,NA,NA,2014-08-12,NA,"WEEK 6","Overall Response by Investigator","OVR","Tumor Response","Investigator","RECIST 1.1",4,"NON-CR/NON-PD","Y","Y",3,"WEEK 6","OVRLRESP","Overall Response","NON-CR/NON-PD","NON-CR/NON-PD","INVESTIGATOR",NA,NA,"2014-08-12",6,NA
"CDISCPILOT01","01-701-1034","1034","701","USA",NA,"2014-07-01","2014-12-30","2014-07-01","2014-12-30","2014-12-30T09:50",NA,NA,NA,NA,NA,NA,NA,NA,NA,NA,NA,13,"NA","2014-06-24",-7,77,"YEARS",">64","F","WHITE","White","NOT HISPANIC OR LATINO","Y","Xanomeline High Dose","Xan_Hi","Xanomeline High Dose","Xan_Hi","Xanomeline High Dose","Xanomeline High Dose",2014-07-01,2014-07-01,"H",2014-12-30,2014-12-30 23:59:59,"H","COMPLETED",2014-12-30,NA,2014-07-01,2014-12-30,183,NA,NA,NA,NA,NA,NA,"Disease Progression by Investigator","PD","Tumor Response","Investigator","RECIST 1.1",0,"N","Y",NA,NA,NA,NA,NA,NA,NA,NA,NA,NA,NA,NA,NA
"CDISCPILOT01","01-701-1034","1034","701","USA",NA,"2014-07-01","2014-12-30","2014-07-01","2014-12-30","2014-12-30T09:50",NA,NA,NA,NA,NA,NA,NA,NA,NA,NA,NA,14,"NA","2014-06-24",-7,77,"YEARS",">64","F","WHITE","White","NOT HISPANIC OR LATINO","Y","Xanomeline High Dose","Xan_Hi","Xanomeline High Dose","Xan_Hi","Xanomeline High Dose","Xanomeline High Dose",2014-07-01,2014-07-01,"H",2014-12-30,2014-12-30 23:59:59,"H","COMPLETED",2014-12-30,NA,2014-07-01,2014-12-30,183,NA,NA,NA,NA,NA,NA,"Response by Investigator (confirmation not required)","RSP","Tumor Response","Investigator","RECIST 1.1",0,"N","Y",NA,NA,NA,NA,NA,NA,NA,NA,NA,NA,NA,NA,NA
"CDISCPILOT01","01-701-1047","1047","701","USA",NA,"2013-02-12","2013-03-29","2013-02-12","2013-03-09","2013-07-28",NA,2013-07-28,NA,NA,NA,NA,NA,NA,NA,NA,NA,1,"NA","2013-01-22",-21,85,"YEARS",">64","F","WHITE","White","NOT HISPANIC OR LATINO","Y","Placebo","Pbo","Placebo","Pbo","Placebo","Placebo",2013-02-12,2013-02-12,"H",2013-03-09,2013-03-09 23:59:59,"H","DISCONTINUED",2013-03-29,NA,2013-02-12,2013-04-07,26,NA,NA,NA,NA,NA,NA,"Best Overall Response of CR/PR by Investigator (confirmation not required)","BCP","Tumor Response","Investigator","RECIST 1.1",0,"N","Y",NA,NA,NA,NA,NA,NA,NA,NA,NA,NA,NA,NA,NA
"CDISCPILOT01","01-701-1047","1047","701","USA",NA,"2013-02-12","2013-03-29","2013-02-12","2013-03-09","2013-07-28",NA,2013-07-28,NA,NA,NA,NA,NA,NA,NA,NA,NA,2,"NA","2013-01-22",-21,85,"YEARS",">64","F","WHITE","White","NOT HISPANIC OR LATINO","Y","Placebo","Pbo","Placebo","Pbo","Placebo","Placebo",2013-02-12,2013-02-12,"H",2013-03-09,2013-03-09 23:59:59,"H","DISCONTINUED",2013-03-29,NA,2013-02-12,2013-04-07,26,NA,NA,NA,NA,NA,NA,"Best Overall Response by Investigator (confirmation not required)","BOR","Tumor Response","Investigator","RECIST 1.1",7,"MISSING","Y",NA,NA,NA,NA,NA,NA,NA,NA,NA,NA,NA,NA,NA
"CDISCPILOT01","01-701-1047","1047","701","USA",NA,"2013-02-12","2013-03-29","2013-02-12","2013-03-09","2013-07-28",NA,2013-07-28,NA,NA,NA,NA,NA,NA,NA,NA,NA,3,"NA","2013-01-22",-21,85,"YEARS",">64","F","WHITE","White","NOT HISPANIC OR LATINO","Y","Placebo","Pbo","Placebo","Pbo","Placebo","Placebo",2013-02-12,2013-02-12,"H",2013-03-09,2013-03-09 23:59:59,"H","DISCONTINUED",2013-03-29,NA,2013-02-12,2013-04-07,26,NA,NA,NA,NA,NA,NA,"Clinical Benefit by Investigator (confirmation for response not required)","CB","Tumor Response","Investigator","RECIST 1.1",0,"N","Y",NA,NA,NA,NA,NA,NA,NA,NA,NA,NA,NA,NA,NA
"CDISCPILOT01","01-701-1047","1047","701","USA",NA,"2013-02-12","2013-03-29","2013-02-12","2013-03-09","2013-07-28",NA,2013-07-28,NA,NA,NA,NA,NA,NA,NA,NA,NA,4,"NA","2013-01-22",-21,85,"YEARS",">64","F","WHITE","White","NOT HISPANIC OR LATINO","Y","Placebo","Pbo","Placebo","Pbo","Placebo","Placebo",2013-02-12,2013-02-12,"H",2013-03-09,2013-03-09 23:59:59,"H","DISCONTINUED",2013-03-29,NA,2013-02-12,2013-04-07,26,NA,NA,NA,NA,NA,NA,"Best Confirmed Overall Response of CR/PR by Investigator","CBCP","Tumor Response","Investigator","RECIST 1.1",0,"N","Y",NA,NA,NA,NA,NA,NA,NA,NA,NA,NA,NA,NA,NA
"CDISCPILOT01","01-701-1047","1047","701","USA",NA,"2013-02-12","2013-03-29","2013-02-12","2013-03-09","2013-07-28",NA,2013-07-28,NA,NA,NA,NA,NA,NA,NA,NA,NA,5,"NA","2013-01-22",-21,85,"YEARS",">64","F","WHITE","White","NOT HISPANIC OR LATINO","Y","Placebo","Pbo","Placebo","Pbo","Placebo","Placebo",2013-02-12,2013-02-12,"H",2013-03-09,2013-03-09 23:59:59,"H","DISCONTINUED",2013-03-29,NA,2013-02-12,2013-04-07,26,NA,NA,NA,NA,NA,NA,"Best Confirmed Overall Response by Investigator","CBOR","Tumor Response","Investigator","RECIST 1.1",7,"MISSING","Y",NA,NA,NA,NA,NA,NA,NA,NA,NA,NA,NA,NA,NA
"CDISCPILOT01","01-701-1047","1047","701","USA",NA,"2013-02-12","2013-03-29","2013-02-12","2013-03-09","2013-07-28",NA,2013-07-28,NA,NA,NA,NA,NA,NA,NA,NA,NA,6,"NA","2013-01-22",-21,85,"YEARS",">64","F","WHITE","White","NOT HISPANIC OR LATINO","Y","Placebo","Pbo","Placebo","Pbo","Placebo","Placebo",2013-02-12,2013-02-12,"H",2013-03-09,2013-03-09 23:59:59,"H","DISCONTINUED",2013-03-29,NA,2013-02-12,2013-04-07,26,NA,NA,NA,NA,NA,NA,"Confirmed Clinical Benefit by Investigator","CCB","Tumor Response","Investigator","RECIST 1.1",0,"N","Y",NA,NA,NA,NA,NA,NA,NA,NA,NA,NA,NA,NA,NA
"CDISCPILOT01","01-701-1047","1047","701","USA",NA,"2013-02-12","2013-03-29","2013-02-12","2013-03-09","2013-07-28",NA,2013-07-28,NA,NA,NA,NA,NA,NA,NA,NA,NA,7,"NA","2013-01-22",-21,85,"YEARS",">64","F","WHITE","White","NOT HISPANIC OR LATINO","Y","Placebo","Pbo","Placebo","Pbo","Placebo","Placebo",2013-02-12,2013-02-12,"H",2013-03-09,2013-03-09 23:59:59,"H","DISCONTINUED",2013-03-29,NA,2013-02-12,2013-04-07,26,NA,NA,NA,NA,NA,NA,"Confirmed Response by Investigator","CRSP","Tumor Response","Investigator","RECIST 1.1",0,"N","Y",NA,NA,NA,NA,NA,NA,NA,NA,NA,NA,NA,NA,NA
"CDISCPILOT01","01-701-1047","1047","701","USA",NA,"2013-02-12","2013-03-29","2013-02-12","2013-03-09","2013-07-28",NA,2013-07-28,NA,NA,NA,NA,NA,NA,NA,NA,NA,8,"NA","2013-01-22",-21,85,"YEARS",">64","F","WHITE","White","NOT HISPANIC OR LATINO","Y","Placebo","Pbo","Placebo","Pbo","Placebo","Placebo",2013-02-12,2013-02-12,"H",2013-03-09,2013-03-09 23:59:59,"H","DISCONTINUED",2013-03-29,NA,2013-02-12,2013-04-07,26,NA,NA,NA,NA,NA,NA,"Death","DEATH","Reference Event",NA,NA,0,"N","Y",NA,NA,NA,NA,NA,NA,NA,NA,NA,NA,NA,NA,NA
"CDISCPILOT01","01-701-1047","1047","701","USA",NA,"2013-02-12","2013-03-29","2013-02-12","2013-03-09","2013-07-28",NA,2013-07-28,NA,NA,NA,NA,NA,NA,NA,NA,NA,9,"NA","2013-01-22",-21,85,"YEARS",">64","F","WHITE","White","NOT HISPANIC OR LATINO","Y","Placebo","Pbo","Placebo","Pbo","Placebo","Placebo",2013-02-12,2013-02-12,"H",2013-03-09,2013-03-09 23:59:59,"H","DISCONTINUED",2013-03-29,NA,2013-02-12,2013-04-07,26,NA,NA,NA,NA,NA,NA,"Last Disease Assessment by Investigator","LSTA","Tumor Response","Investigator","RECIST 1.1",NA,NA,"Y",NA,NA,NA,NA,NA,NA,NA,NA,NA,NA,NA,NA,NA
"CDISCPILOT01","01-701-1047","1047","701","USA",NA,"2013-02-12","2013-03-29","2013-02-12","2013-03-09","2013-07-28",NA,2013-07-28,NA,NA,NA,NA,NA,NA,NA,NA,NA,10,"NA","2013-01-22",-21,85,"YEARS",">64","F","WHITE","White","NOT HISPANIC OR LATINO","Y","Placebo","Pbo","Placebo","Pbo","Placebo","Placebo",2013-02-12,2013-02-12,"H",2013-03-09,2013-03-09 23:59:59,"H","DISCONTINUED",2013-03-29,NA,NA,2013-04-07,26,NA,NA,NA,NA,NA,NA,"Measurable Disease at Baseline by Investigator","MDIS",NA,"Investigator","RECIST 1.1",0,"N","Y",NA,NA,NA,NA,NA,NA,NA,NA,NA,NA,NA,NA,NA
"CDISCPILOT01","01-701-1047","1047","701","USA",NA,"2013-02-12","2013-03-29","2013-02-12","2013-03-09","2013-07-28",NA,2013-07-28,NA,NA,NA,NA,NA,NA,NA,NA,NA,11,"NA","2013-01-22",-21,85,"YEARS",">64","F","WHITE","White","NOT HISPANIC OR LATINO","Y","Placebo","Pbo","Placebo","Pbo","Placebo","Placebo",2013-02-12,2013-02-12,"H",2013-03-09,2013-03-09 23:59:59,"H","DISCONTINUED",2013-03-29,NA,2013-02-12,2013-04-07,26,NA,NA,NA,NA,NA,NA,"Disease Progression by Investigator","PD","Tumor Response","Investigator","RECIST 1.1",0,"N","Y",NA,NA,NA,NA,NA,NA,NA,NA,NA,NA,NA,NA,NA
"CDISCPILOT01","01-701-1047","1047","701","USA",NA,"2013-02-12","2013-03-29","2013-02-12","2013-03-09","2013-07-28",NA,2013-07-28,NA,NA,NA,NA,NA,NA,NA,NA,NA,12,"NA","2013-01-22",-21,85,"YEARS",">64","F","WHITE","White","NOT HISPANIC OR LATINO","Y","Placebo","Pbo","Placebo","Pbo","Placebo","Placebo",2013-02-12,2013-02-12,"H",2013-03-09,2013-03-09 23:59:59,"H","DISCONTINUED",2013-03-29,NA,2013-02-12,2013-04-07,26,NA,NA,NA,NA,NA,NA,"Response by Investigator (confirmation not required)","RSP","Tumor Response","Investigator","RECIST 1.1",0,"N","Y",NA,NA,NA,NA,NA,NA,NA,NA,NA,NA,NA,NA,NA
"CDISCPILOT01","01-701-1057","1057","701","USA",NA,NA,NA,NA,NA,"2013-12-27",2013-12-20,NA,NA,NA,NA,NA,NA,NA,NA,NA,NA,1,"NA","2013-12-20",NA,59,"YEARS","18-64","F","WHITE","White","HISPANIC OR LATINO","N","Screen Failure","Scrnfail","Screen Failure","Scrnfail","Screen Failure","Screen Failure",NA,NA,NA,NA,NA,NA,NA,NA,NA,NA,NA,NA,NA,NA,NA,NA,NA,NA,"Best Overall Response of CR/PR by Investigator (confirmation not required)","BCP","Tumor Response","Investigator","RECIST 1.1",0,"N","Y",NA,NA,NA,NA,NA,NA,NA,NA,NA,NA,NA,NA,NA
"CDISCPILOT01","01-701-1057","1057","701","USA",NA,NA,NA,NA,NA,"2013-12-27",2013-12-20,NA,NA,NA,NA,NA,NA,NA,NA,NA,NA,2,"NA","2013-12-20",NA,59,"YEARS","18-64","F","WHITE","White","HISPANIC OR LATINO","N","Screen Failure","Scrnfail","Screen Failure","Scrnfail","Screen Failure","Screen Failure",NA,NA,NA,NA,NA,NA,NA,NA,NA,NA,NA,NA,NA,NA,NA,NA,NA,NA,"Best Overall Response by Investigator (confirmation not required)","BOR","Tumor Response","Investigator","RECIST 1.1",7,"MISSING","Y",NA,NA,NA,NA,NA,NA,NA,NA,NA,NA,NA,NA,NA
"CDISCPILOT01","01-701-1057","1057","701","USA",NA,NA,NA,NA,NA,"2013-12-27",2013-12-20,NA,NA,NA,NA,NA,NA,NA,NA,NA,NA,3,"NA","2013-12-20",NA,59,"YEARS","18-64","F","WHITE","White","HISPANIC OR LATINO","N","Screen Failure","Scrnfail","Screen Failure","Scrnfail","Screen Failure","Screen Failure",NA,NA,NA,NA,NA,NA,NA,NA,NA,NA,NA,NA,NA,NA,NA,NA,NA,NA,"Clinical Benefit by Investigator (confirmation for response not required)","CB","Tumor Response","Investigator","RECIST 1.1",0,"N","Y",NA,NA,NA,NA,NA,NA,NA,NA,NA,NA,NA,NA,NA
"CDISCPILOT01","01-701-1057","1057","701","USA",NA,NA,NA,NA,NA,"2013-12-27",2013-12-20,NA,NA,NA,NA,NA,NA,NA,NA,NA,NA,4,"NA","2013-12-20",NA,59,"YEARS","18-64","F","WHITE","White","HISPANIC OR LATINO","N","Screen Failure","Scrnfail","Screen Failure","Scrnfail","Screen Failure","Screen Failure",NA,NA,NA,NA,NA,NA,NA,NA,NA,NA,NA,NA,NA,NA,NA,NA,NA,NA,"Best Confirmed Overall Response of CR/PR by Investigator","CBCP","Tumor Response","Investigator","RECIST 1.1",0,"N","Y",NA,NA,NA,NA,NA,NA,NA,NA,NA,NA,NA,NA,NA
"CDISCPILOT01","01-701-1057","1057","701","USA",NA,NA,NA,NA,NA,"2013-12-27",2013-12-20,NA,NA,NA,NA,NA,NA,NA,NA,NA,NA,5,"NA","2013-12-20",NA,59,"YEARS","18-64","F","WHITE","White","HISPANIC OR LATINO","N","Screen Failure","Scrnfail","Screen Failure","Scrnfail","Screen Failure","Screen Failure",NA,NA,NA,NA,NA,NA,NA,NA,NA,NA,NA,NA,NA,NA,NA,NA,NA,NA,"Best Confirmed Overall Response by Investigator","CBOR","Tumor Response","Investigator","RECIST 1.1",7,"MISSING","Y",NA,NA,NA,NA,NA,NA,NA,NA,NA,NA,NA,NA,NA
"CDISCPILOT01","01-701-1057","1057","701","USA",NA,NA,NA,NA,NA,"2013-12-27",2013-12-20,NA,NA,NA,NA,NA,NA,NA,NA,NA,NA,6,"NA","2013-12-20",NA,59,"YEARS","18-64","F","WHITE","White","HISPANIC OR LATINO","N","Screen Failure","Scrnfail","Screen Failure","Scrnfail","Screen Failure","Screen Failure",NA,NA,NA,NA,NA,NA,NA,NA,NA,NA,NA,NA,NA,NA,NA,NA,NA,NA,"Confirmed Clinical Benefit by Investigator","CCB","Tumor Response","Investigator","RECIST 1.1",0,"N","Y",NA,NA,NA,NA,NA,NA,NA,NA,NA,NA,NA,NA,NA
"CDISCPILOT01","01-701-1057","1057","701","USA",NA,NA,NA,NA,NA,"2013-12-27",2013-12-20,NA,NA,NA,NA,NA,NA,NA,NA,NA,NA,7,"NA","2013-12-20",NA,59,"YEARS","18-64","F","WHITE","White","HISPANIC OR LATINO","N","Screen Failure","Scrnfail","Screen Failure","Scrnfail","Screen Failure","Screen Failure",NA,NA,NA,NA,NA,NA,NA,NA,NA,NA,NA,NA,NA,NA,NA,NA,NA,NA,"Confirmed Response by Investigator","CRSP","Tumor Response","Investigator","RECIST 1.1",0,"N","Y",NA,NA,NA,NA,NA,NA,NA,NA,NA,NA,NA,NA,NA
"CDISCPILOT01","01-701-1057","1057","701","USA",NA,NA,NA,NA,NA,"2013-12-27",2013-12-20,NA,NA,NA,NA,NA,NA,NA,NA,NA,NA,8,"NA","2013-12-20",NA,59,"YEARS","18-64","F","WHITE","White","HISPANIC OR LATINO","N","Screen Failure","Scrnfail","Screen Failure","Scrnfail","Screen Failure","Screen Failure",NA,NA,NA,NA,NA,NA,NA,NA,NA,NA,NA,NA,NA,NA,NA,NA,NA,NA,"Death","DEATH","Reference Event",NA,NA,0,"N","Y",NA,NA,NA,NA,NA,NA,NA,NA,NA,NA,NA,NA,NA
"CDISCPILOT01","01-701-1057","1057","701","USA",NA,NA,NA,NA,NA,"2013-12-27",2013-12-20,NA,NA,NA,NA,NA,NA,NA,NA,NA,NA,9,"NA","2013-12-20",NA,59,"YEARS","18-64","F","WHITE","White","HISPANIC OR LATINO","N","Screen Failure","Scrnfail","Screen Failure","Scrnfail","Screen Failure","Screen Failure",NA,NA,NA,NA,NA,NA,NA,NA,NA,NA,NA,NA,NA,NA,NA,NA,NA,NA,"Last Disease Assessment by Investigator","LSTA","Tumor Response","Investigator","RECIST 1.1",NA,NA,"Y",NA,NA,NA,NA,NA,NA,NA,NA,NA,NA,NA,NA,NA
"CDISCPILOT01","01-701-1057","1057","701","USA",NA,NA,NA,NA,NA,"2013-12-27",2013-12-20,NA,NA,NA,NA,NA,NA,NA,NA,NA,NA,10,"NA","2013-12-20",NA,59,"YEARS","18-64","F","WHITE","White","HISPANIC OR LATINO","N","Screen Failure","Scrnfail","Screen Failure","Scrnfail","Screen Failure","Screen Failure",NA,NA,NA,NA,NA,NA,NA,NA,NA,NA,NA,NA,NA,NA,NA,NA,NA,NA,"Measurable Disease at Baseline by Investigator","MDIS",NA,"Investigator","RECIST 1.1",0,"N","Y",NA,NA,NA,NA,NA,NA,NA,NA,NA,NA,NA,NA,NA
"CDISCPILOT01","01-701-1057","1057","701","USA",NA,NA,NA,NA,NA,"2013-12-27",2013-12-20,NA,NA,NA,NA,NA,NA,NA,NA,NA,NA,11,"NA","2013-12-20",NA,59,"YEARS","18-64","F","WHITE","White","HISPANIC OR LATINO","N","Screen Failure","Scrnfail","Screen Failure","Scrnfail","Screen Failure","Screen Failure",NA,NA,NA,NA,NA,NA,NA,NA,NA,NA,NA,NA,NA,NA,NA,NA,NA,NA,"Disease Progression by Investigator","PD","Tumor Response","Investigator","RECIST 1.1",0,"N","Y",NA,NA,NA,NA,NA,NA,NA,NA,NA,NA,NA,NA,NA
"CDISCPILOT01","01-701-1057","1057","701","USA",NA,NA,NA,NA,NA,"2013-12-27",2013-12-20,NA,NA,NA,NA,NA,NA,NA,NA,NA,NA,12,"NA","2013-12-20",NA,59,"YEARS","18-64","F","WHITE","White","HISPANIC OR LATINO","N","Screen Failure","Scrnfail","Screen Failure","Scrnfail","Screen Failure","Screen Failure",NA,NA,NA,NA,NA,NA,NA,NA,NA,NA,NA,NA,NA,NA,NA,NA,NA,NA,"Response by Investigator (confirmation not required)","RSP","Tumor Response","Investigator","RECIST 1.1",0,"N","Y",NA,NA,NA,NA,NA,NA,NA,NA,NA,NA,NA,NA,NA
"CDISCPILOT01","01-701-1097","1097","701","USA",NA,"2014-01-01","2014-07-09","2014-01-01","2014-07-09","2014-07-09T09:39",NA,NA,NA,NA,NA,NA,NA,NA,NA,NA,NA,1,"NA","2013-12-23",-9,68,"YEARS",">64","M","WHITE","White","NOT HISPANIC OR LATINO","Y","Xanomeline Low Dose","Xan_Lo","Xanomeline Low Dose","Xan_Lo","Xanomeline Low Dose","Xanomeline Low Dose",2014-01-01,2014-01-01,"H",2014-07-09,2014-07-09 23:59:59,"H","COMPLETED",2014-07-09,NA,2014-01-01,2014-07-09,190,NA,NA,NA,NA,NA,NA,"Best Overall Response of CR/PR by Investigator (confirmation not required)","BCP","Tumor Response","Investigator","RECIST 1.1",0,"N","Y",NA,NA,NA,NA,NA,NA,NA,NA,NA,NA,NA,NA,NA
"CDISCPILOT01","01-701-1097","1097","701","USA","RS","2014-01-01","2014-07-09","2014-01-01","2014-07-09","2014-07-09T09:39",NA,NA,NA,NA,NA,NA,NA,NA,NA,NA,NA,2,"NA","2013-12-23",-9,68,"YEARS",">64","M","WHITE","White","NOT HISPANIC OR LATINO","Y","Xanomeline Low Dose","Xan_Lo","Xanomeline Low Dose","Xan_Lo","Xanomeline Low Dose","Xanomeline Low Dose",2014-01-01,2014-01-01,"H",2014-07-09,2014-07-09 23:59:59,"H","COMPLETED",2014-07-09,NA,2014-01-01,2014-07-09,190,NA,NA,NA,2014-01-22,NA,"WEEK 3","Best Overall Response by Investigator (confirmation not required)","BOR","Tumor Response","Investigator","RECIST 1.1",6,"NE","Y","Y",2,"WEEK 3","OVRLRESP","Overall Response","NON-CR/NON-PD","NON-CR/NON-PD","INVESTIGATOR",NA,NA,"2014-01-22",3,NA
"CDISCPILOT01","01-701-1097","1097","701","USA",NA,"2014-01-01","2014-07-09","2014-01-01","2014-07-09","2014-07-09T09:39",NA,NA,NA,NA,NA,NA,NA,NA,NA,NA,NA,3,"NA","2013-12-23",-9,68,"YEARS",">64","M","WHITE","White","NOT HISPANIC OR LATINO","Y","Xanomeline Low Dose","Xan_Lo","Xanomeline Low Dose","Xan_Lo","Xanomeline Low Dose","Xanomeline Low Dose",2014-01-01,2014-01-01,"H",2014-07-09,2014-07-09 23:59:59,"H","COMPLETED",2014-07-09,NA,2014-01-01,2014-07-09,190,NA,NA,NA,NA,NA,NA,"Clinical Benefit by Investigator (confirmation for response not required)","CB","Tumor Response","Investigator","RECIST 1.1",0,"N","Y",NA,NA,NA,NA,NA,NA,NA,NA,NA,NA,NA,NA,NA
"CDISCPILOT01","01-701-1097","1097","701","USA",NA,"2014-01-01","2014-07-09","2014-01-01","2014-07-09","2014-07-09T09:39",NA,NA,NA,NA,NA,NA,NA,NA,NA,NA,NA,4,"NA","2013-12-23",-9,68,"YEARS",">64","M","WHITE","White","NOT HISPANIC OR LATINO","Y","Xanomeline Low Dose","Xan_Lo","Xanomeline Low Dose","Xan_Lo","Xanomeline Low Dose","Xanomeline Low Dose",2014-01-01,2014-01-01,"H",2014-07-09,2014-07-09 23:59:59,"H","COMPLETED",2014-07-09,NA,2014-01-01,2014-07-09,190,NA,NA,NA,NA,NA,NA,"Best Confirmed Overall Response of CR/PR by Investigator","CBCP","Tumor Response","Investigator","RECIST 1.1",0,"N","Y",NA,NA,NA,NA,NA,NA,NA,NA,NA,NA,NA,NA,NA
"CDISCPILOT01","01-701-1097","1097","701","USA","RS","2014-01-01","2014-07-09","2014-01-01","2014-07-09","2014-07-09T09:39",NA,NA,NA,NA,NA,NA,NA,NA,NA,NA,NA,5,"NA","2013-12-23",-9,68,"YEARS",">64","M","WHITE","White","NOT HISPANIC OR LATINO","Y","Xanomeline Low Dose","Xan_Lo","Xanomeline Low Dose","Xan_Lo","Xanomeline Low Dose","Xanomeline Low Dose",2014-01-01,2014-01-01,"H",2014-07-09,2014-07-09 23:59:59,"H","COMPLETED",2014-07-09,NA,2014-01-01,2014-07-09,190,NA,NA,NA,2014-01-22,NA,"WEEK 3","Best Confirmed Overall Response by Investigator","CBOR","Tumor Response","Investigator","RECIST 1.1",6,"NE","Y","Y",2,"WEEK 3","OVRLRESP","Overall Response","NON-CR/NON-PD","NON-CR/NON-PD","INVESTIGATOR",NA,NA,"2014-01-22",3,NA
"CDISCPILOT01","01-701-1097","1097","701","USA",NA,"2014-01-01","2014-07-09","2014-01-01","2014-07-09","2014-07-09T09:39",NA,NA,NA,NA,NA,NA,NA,NA,NA,NA,NA,6,"NA","2013-12-23",-9,68,"YEARS",">64","M","WHITE","White","NOT HISPANIC OR LATINO","Y","Xanomeline Low Dose","Xan_Lo","Xanomeline Low Dose","Xan_Lo","Xanomeline Low Dose","Xanomeline Low Dose",2014-01-01,2014-01-01,"H",2014-07-09,2014-07-09 23:59:59,"H","COMPLETED",2014-07-09,NA,2014-01-01,2014-07-09,190,NA,NA,NA,NA,NA,NA,"Confirmed Clinical Benefit by Investigator","CCB","Tumor Response","Investigator","RECIST 1.1",0,"N","Y",NA,NA,NA,NA,NA,NA,NA,NA,NA,NA,NA,NA,NA
"CDISCPILOT01","01-701-1097","1097","701","USA",NA,"2014-01-01","2014-07-09","2014-01-01","2014-07-09","2014-07-09T09:39",NA,NA,NA,NA,NA,NA,NA,NA,NA,NA,NA,7,"NA","2013-12-23",-9,68,"YEARS",">64","M","WHITE","White","NOT HISPANIC OR LATINO","Y","Xanomeline Low Dose","Xan_Lo","Xanomeline Low Dose","Xan_Lo","Xanomeline Low Dose","Xanomeline Low Dose",2014-01-01,2014-01-01,"H",2014-07-09,2014-07-09 23:59:59,"H","COMPLETED",2014-07-09,NA,2014-01-01,2014-07-09,190,NA,NA,NA,NA,NA,NA,"Confirmed Response by Investigator","CRSP","Tumor Response","Investigator","RECIST 1.1",0,"N","Y",NA,NA,NA,NA,NA,NA,NA,NA,NA,NA,NA,NA,NA
"CDISCPILOT01","01-701-1097","1097","701","USA",NA,"2014-01-01","2014-07-09","2014-01-01","2014-07-09","2014-07-09T09:39",NA,NA,NA,NA,NA,NA,NA,NA,NA,NA,NA,8,"NA","2013-12-23",-9,68,"YEARS",">64","M","WHITE","White","NOT HISPANIC OR LATINO","Y","Xanomeline Low Dose","Xan_Lo","Xanomeline Low Dose","Xan_Lo","Xanomeline Low Dose","Xanomeline Low Dose",2014-01-01,2014-01-01,"H",2014-07-09,2014-07-09 23:59:59,"H","COMPLETED",2014-07-09,NA,2014-01-01,2014-07-09,190,NA,NA,NA,NA,NA,NA,"Death","DEATH","Reference Event",NA,NA,0,"N","Y",NA,NA,NA,NA,NA,NA,NA,NA,NA,NA,NA,NA,NA
"CDISCPILOT01","01-701-1097","1097","701","USA","RS","2014-01-01","2014-07-09","2014-01-01","2014-07-09","2014-07-09T09:39",NA,NA,NA,NA,NA,NA,NA,NA,NA,NA,NA,9,"NA","2013-12-23",-9,68,"YEARS",">64","M","WHITE","White","NOT HISPANIC OR LATINO","Y","Xanomeline Low Dose","Xan_Lo","Xanomeline Low Dose","Xan_Lo","Xanomeline Low Dose","Xanomeline Low Dose",2014-01-01,2014-01-01,"H",2014-07-09,2014-07-09 23:59:59,"H","COMPLETED",2014-07-09,NA,2014-01-01,2014-07-09,190,NA,NA,NA,2014-01-22,NA,"WEEK 3","Last Disease Assessment by Investigator","LSTA","Tumor Response","Investigator","RECIST 1.1",4,"NON-CR/NON-PD","Y","Y",2,"WEEK 3","OVRLRESP","Overall Response","NON-CR/NON-PD","NON-CR/NON-PD","INVESTIGATOR",NA,NA,"2014-01-22",3,NA
"CDISCPILOT01","01-701-1097","1097","701","USA",NA,"2014-01-01","2014-07-09","2014-01-01","2014-07-09","2014-07-09T09:39",NA,NA,NA,NA,NA,NA,NA,NA,NA,NA,NA,10,"NA","2013-12-23",-9,68,"YEARS",">64","M","WHITE","White","NOT HISPANIC OR LATINO","Y","Xanomeline Low Dose","Xan_Lo","Xanomeline Low Dose","Xan_Lo","Xanomeline Low Dose","Xanomeline Low Dose",2014-01-01,2014-01-01,"H",2014-07-09,2014-07-09 23:59:59,"H","COMPLETED",2014-07-09,NA,NA,2014-07-09,190,NA,NA,NA,NA,NA,NA,"Measurable Disease at Baseline by Investigator","MDIS",NA,"Investigator","RECIST 1.1",0,"N","Y",NA,NA,NA,NA,NA,NA,NA,NA,NA,NA,NA,NA,NA
"CDISCPILOT01","01-701-1097","1097","701","USA","RS","2014-01-01","2014-07-09","2014-01-01","2014-07-09","2014-07-09T09:39",NA,NA,NA,NA,NA,NA,NA,NA,NA,NA,NA,11,"NA","2013-12-23",-9,68,"YEARS",">64","M","WHITE","White","NOT HISPANIC OR LATINO","Y","Xanomeline Low Dose","Xan_Lo","Xanomeline Low Dose","Xan_Lo","Xanomeline Low Dose","Xanomeline Low Dose",2014-01-01,2014-01-01,"H",2014-07-09,2014-07-09 23:59:59,"H","COMPLETED",2014-07-09,NA,2014-01-01,2014-07-09,190,NA,NA,NA,2014-01-22,NA,"WEEK 3","Overall Response by Investigator","OVR","Tumor Response","Investigator","RECIST 1.1",4,"NON-CR/NON-PD","Y","Y",2,"WEEK 3","OVRLRESP","Overall Response","NON-CR/NON-PD","NON-CR/NON-PD","INVESTIGATOR",NA,NA,"2014-01-22",3,NA
"CDISCPILOT01","01-701-1097","1097","701","USA",NA,"2014-01-01","2014-07-09","2014-01-01","2014-07-09","2014-07-09T09:39",NA,NA,NA,NA,NA,NA,NA,NA,NA,NA,NA,12,"NA","2013-12-23",-9,68,"YEARS",">64","M","WHITE","White","NOT HISPANIC OR LATINO","Y","Xanomeline Low Dose","Xan_Lo","Xanomeline Low Dose","Xan_Lo","Xanomeline Low Dose","Xanomeline Low Dose",2014-01-01,2014-01-01,"H",2014-07-09,2014-07-09 23:59:59,"H","COMPLETED",2014-07-09,NA,2014-01-01,2014-07-09,190,NA,NA,NA,NA,NA,NA,"Disease Progression by Investigator","PD","Tumor Response","Investigator","RECIST 1.1",0,"N","Y",NA,NA,NA,NA,NA,NA,NA,NA,NA,NA,NA,NA,NA
"CDISCPILOT01","01-701-1097","1097","701","USA",NA,"2014-01-01","2014-07-09","2014-01-01","2014-07-09","2014-07-09T09:39",NA,NA,NA,NA,NA,NA,NA,NA,NA,NA,NA,13,"NA","2013-12-23",-9,68,"YEARS",">64","M","WHITE","White","NOT HISPANIC OR LATINO","Y","Xanomeline Low Dose","Xan_Lo","Xanomeline Low Dose","Xan_Lo","Xanomeline Low Dose","Xanomeline Low Dose",2014-01-01,2014-01-01,"H",2014-07-09,2014-07-09 23:59:59,"H","COMPLETED",2014-07-09,NA,2014-01-01,2014-07-09,190,NA,NA,NA,NA,NA,NA,"Response by Investigator (confirmation not required)","RSP","Tumor Response","Investigator","RECIST 1.1",0,"N","Y",NA,NA,NA,NA,NA,NA,NA,NA,NA,NA,NA,NA,NA
"CDISCPILOT01","01-701-1111","1111","701","USA",NA,"2012-09-07","2012-09-17","2012-09-07","2012-09-16","2013-02-22",NA,2013-02-22,NA,NA,NA,NA,NA,NA,NA,NA,NA,1,"NA","2012-08-25",-13,81,"YEARS",">64","F","WHITE","White","NOT HISPANIC OR LATINO","Y","Xanomeline Low Dose","Xan_Lo","Xanomeline Low Dose","Xan_Lo","Xanomeline Low Dose","Xanomeline Low Dose",2012-09-07,2012-09-07,"H",2012-09-16,2012-09-16 23:59:59,"H","DISCONTINUED",2012-09-17,NA,2012-09-07,2012-09-17,10,NA,NA,NA,NA,NA,NA,"Best Overall Response of CR/PR by Investigator (confirmation not required)","BCP","Tumor Response","Investigator","RECIST 1.1",0,"N","Y",NA,NA,NA,NA,NA,NA,NA,NA,NA,NA,NA,NA,NA
"CDISCPILOT01","01-701-1111","1111","701","USA",NA,"2012-09-07","2012-09-17","2012-09-07","2012-09-16","2013-02-22",NA,2013-02-22,NA,NA,NA,NA,NA,NA,NA,NA,NA,2,"NA","2012-08-25",-13,81,"YEARS",">64","F","WHITE","White","NOT HISPANIC OR LATINO","Y","Xanomeline Low Dose","Xan_Lo","Xanomeline Low Dose","Xan_Lo","Xanomeline Low Dose","Xanomeline Low Dose",2012-09-07,2012-09-07,"H",2012-09-16,2012-09-16 23:59:59,"H","DISCONTINUED",2012-09-17,NA,2012-09-07,2012-09-17,10,NA,NA,NA,NA,NA,NA,"Best Overall Response by Investigator (confirmation not required)","BOR","Tumor Response","Investigator","RECIST 1.1",7,"MISSING","Y",NA,NA,NA,NA,NA,NA,NA,NA,NA,NA,NA,NA,NA
"CDISCPILOT01","01-701-1111","1111","701","USA",NA,"2012-09-07","2012-09-17","2012-09-07","2012-09-16","2013-02-22",NA,2013-02-22,NA,NA,NA,NA,NA,NA,NA,NA,NA,3,"NA","2012-08-25",-13,81,"YEARS",">64","F","WHITE","White","NOT HISPANIC OR LATINO","Y","Xanomeline Low Dose","Xan_Lo","Xanomeline Low Dose","Xan_Lo","Xanomeline Low Dose","Xanomeline Low Dose",2012-09-07,2012-09-07,"H",2012-09-16,2012-09-16 23:59:59,"H","DISCONTINUED",2012-09-17,NA,2012-09-07,2012-09-17,10,NA,NA,NA,NA,NA,NA,"Clinical Benefit by Investigator (confirmation for response not required)","CB","Tumor Response","Investigator","RECIST 1.1",0,"N","Y",NA,NA,NA,NA,NA,NA,NA,NA,NA,NA,NA,NA,NA
"CDISCPILOT01","01-701-1111","1111","701","USA",NA,"2012-09-07","2012-09-17","2012-09-07","2012-09-16","2013-02-22",NA,2013-02-22,NA,NA,NA,NA,NA,NA,NA,NA,NA,4,"NA","2012-08-25",-13,81,"YEARS",">64","F","WHITE","White","NOT HISPANIC OR LATINO","Y","Xanomeline Low Dose","Xan_Lo","Xanomeline Low Dose","Xan_Lo","Xanomeline Low Dose","Xanomeline Low Dose",2012-09-07,2012-09-07,"H",2012-09-16,2012-09-16 23:59:59,"H","DISCONTINUED",2012-09-17,NA,2012-09-07,2012-09-17,10,NA,NA,NA,NA,NA,NA,"Best Confirmed Overall Response of CR/PR by Investigator","CBCP","Tumor Response","Investigator","RECIST 1.1",0,"N","Y",NA,NA,NA,NA,NA,NA,NA,NA,NA,NA,NA,NA,NA
"CDISCPILOT01","01-701-1111","1111","701","USA",NA,"2012-09-07","2012-09-17","2012-09-07","2012-09-16","2013-02-22",NA,2013-02-22,NA,NA,NA,NA,NA,NA,NA,NA,NA,5,"NA","2012-08-25",-13,81,"YEARS",">64","F","WHITE","White","NOT HISPANIC OR LATINO","Y","Xanomeline Low Dose","Xan_Lo","Xanomeline Low Dose","Xan_Lo","Xanomeline Low Dose","Xanomeline Low Dose",2012-09-07,2012-09-07,"H",2012-09-16,2012-09-16 23:59:59,"H","DISCONTINUED",2012-09-17,NA,2012-09-07,2012-09-17,10,NA,NA,NA,NA,NA,NA,"Best Confirmed Overall Response by Investigator","CBOR","Tumor Response","Investigator","RECIST 1.1",7,"MISSING","Y",NA,NA,NA,NA,NA,NA,NA,NA,NA,NA,NA,NA,NA
"CDISCPILOT01","01-701-1111","1111","701","USA",NA,"2012-09-07","2012-09-17","2012-09-07","2012-09-16","2013-02-22",NA,2013-02-22,NA,NA,NA,NA,NA,NA,NA,NA,NA,6,"NA","2012-08-25",-13,81,"YEARS",">64","F","WHITE","White","NOT HISPANIC OR LATINO","Y","Xanomeline Low Dose","Xan_Lo","Xanomeline Low Dose","Xan_Lo","Xanomeline Low Dose","Xanomeline Low Dose",2012-09-07,2012-09-07,"H",2012-09-16,2012-09-16 23:59:59,"H","DISCONTINUED",2012-09-17,NA,2012-09-07,2012-09-17,10,NA,NA,NA,NA,NA,NA,"Confirmed Clinical Benefit by Investigator","CCB","Tumor Response","Investigator","RECIST 1.1",0,"N","Y",NA,NA,NA,NA,NA,NA,NA,NA,NA,NA,NA,NA,NA
"CDISCPILOT01","01-701-1111","1111","701","USA",NA,"2012-09-07","2012-09-17","2012-09-07","2012-09-16","2013-02-22",NA,2013-02-22,NA,NA,NA,NA,NA,NA,NA,NA,NA,7,"NA","2012-08-25",-13,81,"YEARS",">64","F","WHITE","White","NOT HISPANIC OR LATINO","Y","Xanomeline Low Dose","Xan_Lo","Xanomeline Low Dose","Xan_Lo","Xanomeline Low Dose","Xanomeline Low Dose",2012-09-07,2012-09-07,"H",2012-09-16,2012-09-16 23:59:59,"H","DISCONTINUED",2012-09-17,NA,2012-09-07,2012-09-17,10,NA,NA,NA,NA,NA,NA,"Confirmed Response by Investigator","CRSP","Tumor Response","Investigator","RECIST 1.1",0,"N","Y",NA,NA,NA,NA,NA,NA,NA,NA,NA,NA,NA,NA,NA
"CDISCPILOT01","01-701-1111","1111","701","USA",NA,"2012-09-07","2012-09-17","2012-09-07","2012-09-16","2013-02-22",NA,2013-02-22,NA,NA,NA,NA,NA,NA,NA,NA,NA,8,"NA","2012-08-25",-13,81,"YEARS",">64","F","WHITE","White","NOT HISPANIC OR LATINO","Y","Xanomeline Low Dose","Xan_Lo","Xanomeline Low Dose","Xan_Lo","Xanomeline Low Dose","Xanomeline Low Dose",2012-09-07,2012-09-07,"H",2012-09-16,2012-09-16 23:59:59,"H","DISCONTINUED",2012-09-17,NA,2012-09-07,2012-09-17,10,NA,NA,NA,NA,NA,NA,"Death","DEATH","Reference Event",NA,NA,0,"N","Y",NA,NA,NA,NA,NA,NA,NA,NA,NA,NA,NA,NA,NA
"CDISCPILOT01","01-701-1111","1111","701","USA",NA,"2012-09-07","2012-09-17","2012-09-07","2012-09-16","2013-02-22",NA,2013-02-22,NA,NA,NA,NA,NA,NA,NA,NA,NA,9,"NA","2012-08-25",-13,81,"YEARS",">64","F","WHITE","White","NOT HISPANIC OR LATINO","Y","Xanomeline Low Dose","Xan_Lo","Xanomeline Low Dose","Xan_Lo","Xanomeline Low Dose","Xanomeline Low Dose",2012-09-07,2012-09-07,"H",2012-09-16,2012-09-16 23:59:59,"H","DISCONTINUED",2012-09-17,NA,2012-09-07,2012-09-17,10,NA,NA,NA,NA,NA,NA,"Last Disease Assessment by Investigator","LSTA","Tumor Response","Investigator","RECIST 1.1",NA,NA,"Y",NA,NA,NA,NA,NA,NA,NA,NA,NA,NA,NA,NA,NA
"CDISCPILOT01","01-701-1111","1111","701","USA",NA,"2012-09-07","2012-09-17","2012-09-07","2012-09-16","2013-02-22",NA,2013-02-22,NA,NA,NA,NA,NA,NA,NA,NA,NA,10,"NA","2012-08-25",-13,81,"YEARS",">64","F","WHITE","White","NOT HISPANIC OR LATINO","Y","Xanomeline Low Dose","Xan_Lo","Xanomeline Low Dose","Xan_Lo","Xanomeline Low Dose","Xanomeline Low Dose",2012-09-07,2012-09-07,"H",2012-09-16,2012-09-16 23:59:59,"H","DISCONTINUED",2012-09-17,NA,NA,2012-09-17,10,NA,NA,NA,NA,NA,NA,"Measurable Disease at Baseline by Investigator","MDIS",NA,"Investigator","RECIST 1.1",0,"N","Y",NA,NA,NA,NA,NA,NA,NA,NA,NA,NA,NA,NA,NA
"CDISCPILOT01","01-701-1111","1111","701","USA",NA,"2012-09-07","2012-09-17","2012-09-07","2012-09-16","2013-02-22",NA,2013-02-22,NA,NA,NA,NA,NA,NA,NA,NA,NA,11,"NA","2012-08-25",-13,81,"YEARS",">64","F","WHITE","White","NOT HISPANIC OR LATINO","Y","Xanomeline Low Dose","Xan_Lo","Xanomeline Low Dose","Xan_Lo","Xanomeline Low Dose","Xanomeline Low Dose",2012-09-07,2012-09-07,"H",2012-09-16,2012-09-16 23:59:59,"H","DISCONTINUED",2012-09-17,NA,2012-09-07,2012-09-17,10,NA,NA,NA,NA,NA,NA,"Disease Progression by Investigator","PD","Tumor Response","Investigator","RECIST 1.1",0,"N","Y",NA,NA,NA,NA,NA,NA,NA,NA,NA,NA,NA,NA,NA
"CDISCPILOT01","01-701-1111","1111","701","USA",NA,"2012-09-07","2012-09-17","2012-09-07","2012-09-16","2013-02-22",NA,2013-02-22,NA,NA,NA,NA,NA,NA,NA,NA,NA,12,"NA","2012-08-25",-13,81,"YEARS",">64","F","WHITE","White","NOT HISPANIC OR LATINO","Y","Xanomeline Low Dose","Xan_Lo","Xanomeline Low Dose","Xan_Lo","Xanomeline Low Dose","Xanomeline Low Dose",2012-09-07,2012-09-07,"H",2012-09-16,2012-09-16 23:59:59,"H","DISCONTINUED",2012-09-17,NA,2012-09-07,2012-09-17,10,NA,NA,NA,NA,NA,NA,"Response by Investigator (confirmation not required)","RSP","Tumor Response","Investigator","RECIST 1.1",0,"N","Y",NA,NA,NA,NA,NA,NA,NA,NA,NA,NA,NA,NA,NA
"CDISCPILOT01","01-701-1115","1115","701","USA","RS","2012-11-30","2013-01-23","2012-11-30","2013-01-23","2013-05-20",NA,2013-05-20,NA,NA,NA,NA,NA,NA,NA,NA,NA,1,"NA","2012-11-23",-7,84,"YEARS",">64","M","WHITE","White","NOT HISPANIC OR LATINO","Y","Xanomeline Low Dose","Xan_Lo","Xanomeline Low Dose","Xan_Lo","Xanomeline Low Dose","Xanomeline Low Dose",2012-11-30,2012-11-30,"H",2013-01-23,2013-01-23 23:59:59,"H","DISCONTINUED",2013-01-23,NA,2012-11-30,2013-01-23,55,NA,NA,NA,2013-02-01,NA,"WEEK 9","Best Overall Response of CR/PR by Investigator (confirmation not required)","BCP","Tumor Response","Investigator","RECIST 1.1",1,"Y","Y","Y",4,"WEEK 9","OVRLRESP","Overall Response","CR","CR","INVESTIGATOR",NA,NA,"2013-02-01",9,NA
"CDISCPILOT01","01-701-1115","1115","701","USA","RS","2012-11-30","2013-01-23","2012-11-30","2013-01-23","2013-05-20",NA,2013-05-20,NA,NA,NA,NA,NA,NA,NA,NA,NA,2,"NA","2012-11-23",-7,84,"YEARS",">64","M","WHITE","White","NOT HISPANIC OR LATINO","Y","Xanomeline Low Dose","Xan_Lo","Xanomeline Low Dose","Xan_Lo","Xanomeline Low Dose","Xanomeline Low Dose",2012-11-30,2012-11-30,"H",2013-01-23,2013-01-23 23:59:59,"H","DISCONTINUED",2013-01-23,NA,2012-11-30,2013-01-23,55,NA,NA,NA,2013-02-01,NA,"WEEK 9","Best Overall Response by Investigator (confirmation not required)","BOR","Tumor Response","Investigator","RECIST 1.1",1,"CR","Y","Y",4,"WEEK 9","OVRLRESP","Overall Response","CR","CR","INVESTIGATOR",NA,NA,"2013-02-01",9,NA
"CDISCPILOT01","01-701-1115","1115","701","USA","RS","2012-11-30","2013-01-23","2012-11-30","2013-01-23","2013-05-20",NA,2013-05-20,NA,NA,NA,NA,NA,NA,NA,NA,NA,3,"NA","2012-11-23",-7,84,"YEARS",">64","M","WHITE","White","NOT HISPANIC OR LATINO","Y","Xanomeline Low Dose","Xan_Lo","Xanomeline Low Dose","Xan_Lo","Xanomeline Low Dose","Xanomeline Low Dose",2012-11-30,2012-11-30,"H",2013-01-23,2013-01-23 23:59:59,"H","DISCONTINUED",2013-01-23,NA,2012-11-30,2013-01-23,55,NA,NA,NA,2013-01-11,NA,"WEEK 6","Clinical Benefit by Investigator (confirmation for response not required)","CB","Tumor Response","Investigator","RECIST 1.1",1,"Y","Y","Y",3,"WEEK 6","OVRLRESP","Overall Response","PR","PR","INVESTIGATOR",NA,NA,"2013-01-11",6,NA
"CDISCPILOT01","01-701-1115","1115","701","USA",NA,"2012-11-30","2013-01-23","2012-11-30","2013-01-23","2013-05-20",NA,2013-05-20,NA,NA,NA,NA,NA,NA,NA,NA,NA,4,"NA","2012-11-23",-7,84,"YEARS",">64","M","WHITE","White","NOT HISPANIC OR LATINO","Y","Xanomeline Low Dose","Xan_Lo","Xanomeline Low Dose","Xan_Lo","Xanomeline Low Dose","Xanomeline Low Dose",2012-11-30,2012-11-30,"H",2013-01-23,2013-01-23 23:59:59,"H","DISCONTINUED",2013-01-23,NA,2012-11-30,2013-01-23,55,NA,NA,NA,NA,NA,NA,"Best Confirmed Overall Response of CR/PR by Investigator","CBCP","Tumor Response","Investigator","RECIST 1.1",0,"N","Y",NA,NA,NA,NA,NA,NA,NA,NA,NA,NA,NA,NA,NA
"CDISCPILOT01","01-701-1115","1115","701","USA","RS","2012-11-30","2013-01-23","2012-11-30","2013-01-23","2013-05-20",NA,2013-05-20,NA,NA,NA,NA,NA,NA,NA,NA,NA,5,"NA","2012-11-23",-7,84,"YEARS",">64","M","WHITE","White","NOT HISPANIC OR LATINO","Y","Xanomeline Low Dose","Xan_Lo","Xanomeline Low Dose","Xan_Lo","Xanomeline Low Dose","Xanomeline Low Dose",2012-11-30,2012-11-30,"H",2013-01-23,2013-01-23 23:59:59,"H","DISCONTINUED",2013-01-23,NA,2012-11-30,2013-01-23,55,NA,NA,NA,2013-01-11,NA,"WEEK 6","Best Confirmed Overall Response by Investigator","CBOR","Tumor Response","Investigator","RECIST 1.1",3,"SD","Y","Y",3,"WEEK 6","OVRLRESP","Overall Response","PR","PR","INVESTIGATOR",NA,NA,"2013-01-11",6,NA
"CDISCPILOT01","01-701-1115","1115","701","USA","RS","2012-11-30","2013-01-23","2012-11-30","2013-01-23","2013-05-20",NA,2013-05-20,NA,NA,NA,NA,NA,NA,NA,NA,NA,6,"NA","2012-11-23",-7,84,"YEARS",">64","M","WHITE","White","NOT HISPANIC OR LATINO","Y","Xanomeline Low Dose","Xan_Lo","Xanomeline Low Dose","Xan_Lo","Xanomeline Low Dose","Xanomeline Low Dose",2012-11-30,2012-11-30,"H",2013-01-23,2013-01-23 23:59:59,"H","DISCONTINUED",2013-01-23,NA,2012-11-30,2013-01-23,55,NA,NA,NA,2013-01-11,NA,"WEEK 6","Confirmed Clinical Benefit by Investigator","CCB","Tumor Response","Investigator","RECIST 1.1",1,"Y","Y","Y",3,"WEEK 6","OVRLRESP","Overall Response","PR","PR","INVESTIGATOR",NA,NA,"2013-01-11",6,NA
"CDISCPILOT01","01-701-1115","1115","701","USA",NA,"2012-11-30","2013-01-23","2012-11-30","2013-01-23","2013-05-20",NA,2013-05-20,NA,NA,NA,NA,NA,NA,NA,NA,NA,7,"NA","2012-11-23",-7,84,"YEARS",">64","M","WHITE","White","NOT HISPANIC OR LATINO","Y","Xanomeline Low Dose","Xan_Lo","Xanomeline Low Dose","Xan_Lo","Xanomeline Low Dose","Xanomeline Low Dose",2012-11-30,2012-11-30,"H",2013-01-23,2013-01-23 23:59:59,"H","DISCONTINUED",2013-01-23,NA,2012-11-30,2013-01-23,55,NA,NA,NA,NA,NA,NA,"Confirmed Response by Investigator","CRSP","Tumor Response","Investigator","RECIST 1.1",0,"N","Y",NA,NA,NA,NA,NA,NA,NA,NA,NA,NA,NA,NA,NA
"CDISCPILOT01","01-701-1115","1115","701","USA",NA,"2012-11-30","2013-01-23","2012-11-30","2013-01-23","2013-05-20",NA,2013-05-20,NA,NA,NA,NA,NA,NA,NA,NA,NA,8,"NA","2012-11-23",-7,84,"YEARS",">64","M","WHITE","White","NOT HISPANIC OR LATINO","Y","Xanomeline Low Dose","Xan_Lo","Xanomeline Low Dose","Xan_Lo","Xanomeline Low Dose","Xanomeline Low Dose",2012-11-30,2012-11-30,"H",2013-01-23,2013-01-23 23:59:59,"H","DISCONTINUED",2013-01-23,NA,2012-11-30,2013-01-23,55,NA,NA,NA,NA,NA,NA,"Death","DEATH","Reference Event",NA,NA,0,"N","Y",NA,NA,NA,NA,NA,NA,NA,NA,NA,NA,NA,NA,NA
"CDISCPILOT01","01-701-1115","1115","701","USA","RS","2012-11-30","2013-01-23","2012-11-30","2013-01-23","2013-05-20",NA,2013-05-20,NA,NA,NA,NA,NA,NA,NA,NA,NA,9,"NA","2012-11-23",-7,84,"YEARS",">64","M","WHITE","White","NOT HISPANIC OR LATINO","Y","Xanomeline Low Dose","Xan_Lo","Xanomeline Low Dose","Xan_Lo","Xanomeline Low Dose","Xanomeline Low Dose",2012-11-30,2012-11-30,"H",2013-01-23,2013-01-23 23:59:59,"H","DISCONTINUED",2013-01-23,NA,2012-11-30,2013-01-23,55,NA,NA,NA,2013-02-01,NA,"WEEK 9","Last Disease Assessment by Investigator","LSTA","Tumor Response","Investigator","RECIST 1.1",1,"CR","Y","Y",4,"WEEK 9","OVRLRESP","Overall Response","CR","CR","INVESTIGATOR",NA,NA,"2013-02-01",9,NA
"CDISCPILOT01","01-701-1115","1115","701","USA",NA,"2012-11-30","2013-01-23","2012-11-30","2013-01-23","2013-05-20",NA,2013-05-20,NA,NA,NA,NA,NA,NA,NA,NA,NA,10,"NA","2012-11-23",-7,84,"YEARS",">64","M","WHITE","White","NOT HISPANIC OR LATINO","Y","Xanomeline Low Dose","Xan_Lo","Xanomeline Low Dose","Xan_Lo","Xanomeline Low Dose","Xanomeline Low Dose",2012-11-30,2012-11-30,"H",2013-01-23,2013-01-23 23:59:59,"H","DISCONTINUED",2013-01-23,NA,NA,2013-01-23,55,NA,NA,NA,NA,NA,NA,"Measurable Disease at Baseline by Investigator","MDIS",NA,"Investigator","RECIST 1.1",1,"Y","Y",NA,NA,NA,NA,NA,NA,NA,NA,NA,NA,NA,NA,NA
"CDISCPILOT01","01-701-1115","1115","701","USA","RS","2012-11-30","2013-01-23","2012-11-30","2013-01-23","2013-05-20",NA,2013-05-20,NA,NA,NA,NA,NA,NA,NA,NA,NA,11,"NA","2012-11-23",-7,84,"YEARS",">64","M","WHITE","White","NOT HISPANIC OR LATINO","Y","Xanomeline Low Dose","Xan_Lo","Xanomeline Low Dose","Xan_Lo","Xanomeline Low Dose","Xanomeline Low Dose",2012-11-30,2012-11-30,"H",2013-01-23,2013-01-23 23:59:59,"H","DISCONTINUED",2013-01-23,NA,2012-11-30,2013-01-23,55,NA,NA,NA,2012-12-21,NA,"WEEK 3","Overall Response by Investigator","OVR","Tumor Response","Investigator","RECIST 1.1",3,"SD","Y","Y",2,"WEEK 3","OVRLRESP","Overall Response","SD","SD","INVESTIGATOR",NA,NA,"2012-12-21",3,NA
"CDISCPILOT01","01-701-1115","1115","701","USA","RS","2012-11-30","2013-01-23","2012-11-30","2013-01-23","2013-05-20",NA,2013-05-20,NA,NA,NA,NA,NA,NA,NA,NA,NA,12,"NA","2012-11-23",-7,84,"YEARS",">64","M","WHITE","White","NOT HISPANIC OR LATINO","Y","Xanomeline Low Dose","Xan_Lo","Xanomeline Low Dose","Xan_Lo","Xanomeline Low Dose","Xanomeline Low Dose",2012-11-30,2012-11-30,"H",2013-01-23,2013-01-23 23:59:59,"H","DISCONTINUED",2013-01-23,NA,2012-11-30,2013-01-23,55,NA,NA,NA,2013-01-11,NA,"WEEK 6","Overall Response by Investigator","OVR","Tumor Response","Investigator","RECIST 1.1",2,"PR","Y","Y",3,"WEEK 6","OVRLRESP","Overall Response","PR","PR","INVESTIGATOR",NA,NA,"2013-01-11",6,NA
"CDISCPILOT01","01-701-1115","1115","701","USA","RS","2012-11-30","2013-01-23","2012-11-30","2013-01-23","2013-05-20",NA,2013-05-20,NA,NA,NA,NA,NA,NA,NA,NA,NA,13,"NA","2012-11-23",-7,84,"YEARS",">64","M","WHITE","White","NOT HISPANIC OR LATINO","Y","Xanomeline Low Dose","Xan_Lo","Xanomeline Low Dose","Xan_Lo","Xanomeline Low Dose","Xanomeline Low Dose",2012-11-30,2012-11-30,"H",2013-01-23,2013-01-23 23:59:59,"H","DISCONTINUED",2013-01-23,NA,2012-11-30,2013-01-23,55,NA,NA,NA,2013-02-01,NA,"WEEK 9","Overall Response by Investigator","OVR","Tumor Response","Investigator","RECIST 1.1",1,"CR","Y","Y",4,"WEEK 9","OVRLRESP","Overall Response","CR","CR","INVESTIGATOR",NA,NA,"2013-02-01",9,NA
"CDISCPILOT01","01-701-1115","1115","701","USA",NA,"2012-11-30","2013-01-23","2012-11-30","2013-01-23","2013-05-20",NA,2013-05-20,NA,NA,NA,NA,NA,NA,NA,NA,NA,14,"NA","2012-11-23",-7,84,"YEARS",">64","M","WHITE","White","NOT HISPANIC OR LATINO","Y","Xanomeline Low Dose","Xan_Lo","Xanomeline Low Dose","Xan_Lo","Xanomeline Low Dose","Xanomeline Low Dose",2012-11-30,2012-11-30,"H",2013-01-23,2013-01-23 23:59:59,"H","DISCONTINUED",2013-01-23,NA,2012-11-30,2013-01-23,55,NA,NA,NA,NA,NA,NA,"Disease Progression by Investigator","PD","Tumor Response","Investigator","RECIST 1.1",0,"N","Y",NA,NA,NA,NA,NA,NA,NA,NA,NA,NA,NA,NA,NA
"CDISCPILOT01","01-701-1115","1115","701","USA","RS","2012-11-30","2013-01-23","2012-11-30","2013-01-23","2013-05-20",NA,2013-05-20,NA,NA,NA,NA,NA,NA,NA,NA,NA,15,"NA","2012-11-23",-7,84,"YEARS",">64","M","WHITE","White","NOT HISPANIC OR LATINO","Y","Xanomeline Low Dose","Xan_Lo","Xanomeline Low Dose","Xan_Lo","Xanomeline Low Dose","Xanomeline Low Dose",2012-11-30,2012-11-30,"H",2013-01-23,2013-01-23 23:59:59,"H","DISCONTINUED",2013-01-23,NA,2012-11-30,2013-01-23,55,NA,NA,NA,2013-01-11,NA,"WEEK 6","Response by Investigator (confirmation not required)","RSP","Tumor Response","Investigator","RECIST 1.1",1,"Y","Y","Y",3,"WEEK 6","OVRLRESP","Overall Response","PR","PR","INVESTIGATOR",NA,NA,"2013-01-11",6,NA
"CDISCPILOT01","01-701-1118","1118","701","USA","RS","2014-03-12","2014-09-09","2014-03-12","2014-09-09","2014-09-09T13:28",NA,NA,NA,NA,NA,NA,NA,NA,NA,NA,NA,1,"NA","2014-02-27",-13,52,"YEARS","18-64","M","WHITE","White","NOT HISPANIC OR LATINO","Y","Placebo","Pbo","Placebo","Pbo","Placebo","Placebo",2014-03-12,2014-03-12,"H",2014-09-09,2014-09-09 23:59:59,"H","COMPLETED",2014-09-09,NA,2014-03-12,2014-09-09,182,NA,NA,NA,2014-04-23,NA,"WEEK 6","Best Overall Response of CR/PR by Investigator (confirmation not required)","BCP","Tumor Response","Investigator","RECIST 1.1",1,"Y","Y","Y",3,"WEEK 6","OVRLRESP","Overall Response","PR","PR","INVESTIGATOR",NA,NA,"2014-04-23",6,NA
"CDISCPILOT01","01-701-1118","1118","701","USA","RS","2014-03-12","2014-09-09","2014-03-12","2014-09-09","2014-09-09T13:28",NA,NA,NA,NA,NA,NA,NA,NA,NA,NA,NA,2,"NA","2014-02-27",-13,52,"YEARS","18-64","M","WHITE","White","NOT HISPANIC OR LATINO","Y","Placebo","Pbo","Placebo","Pbo","Placebo","Placebo",2014-03-12,2014-03-12,"H",2014-09-09,2014-09-09 23:59:59,"H","COMPLETED",2014-09-09,NA,2014-03-12,2014-09-09,182,NA,NA,NA,2014-04-23,NA,"WEEK 6","Best Overall Response by Investigator (confirmation not required)","BOR","Tumor Response","Investigator","RECIST 1.1",2,"PR","Y","Y",3,"WEEK 6","OVRLRESP","Overall Response","PR","PR","INVESTIGATOR",NA,NA,"2014-04-23",6,NA
"CDISCPILOT01","01-701-1118","1118","701","USA","RS","2014-03-12","2014-09-09","2014-03-12","2014-09-09","2014-09-09T13:28",NA,NA,NA,NA,NA,NA,NA,NA,NA,NA,NA,3,"NA","2014-02-27",-13,52,"YEARS","18-64","M","WHITE","White","NOT HISPANIC OR LATINO","Y","Placebo","Pbo","Placebo","Pbo","Placebo","Placebo",2014-03-12,2014-03-12,"H",2014-09-09,2014-09-09 23:59:59,"H","COMPLETED",2014-09-09,NA,2014-03-12,2014-09-09,182,NA,NA,NA,2014-04-23,NA,"WEEK 6","Clinical Benefit by Investigator (confirmation for response not required)","CB","Tumor Response","Investigator","RECIST 1.1",1,"Y","Y","Y",3,"WEEK 6","OVRLRESP","Overall Response","PR","PR","INVESTIGATOR",NA,NA,"2014-04-23",6,NA
"CDISCPILOT01","01-701-1118","1118","701","USA",NA,"2014-03-12","2014-09-09","2014-03-12","2014-09-09","2014-09-09T13:28",NA,NA,NA,NA,NA,NA,NA,NA,NA,NA,NA,4,"NA","2014-02-27",-13,52,"YEARS","18-64","M","WHITE","White","NOT HISPANIC OR LATINO","Y","Placebo","Pbo","Placebo","Pbo","Placebo","Placebo",2014-03-12,2014-03-12,"H",2014-09-09,2014-09-09 23:59:59,"H","COMPLETED",2014-09-09,NA,2014-03-12,2014-09-09,182,NA,NA,NA,NA,NA,NA,"Best Confirmed Overall Response of CR/PR by Investigator","CBCP","Tumor Response","Investigator","RECIST 1.1",0,"N","Y",NA,NA,NA,NA,NA,NA,NA,NA,NA,NA,NA,NA,NA
"CDISCPILOT01","01-701-1118","1118","701","USA","RS","2014-03-12","2014-09-09","2014-03-12","2014-09-09","2014-09-09T13:28",NA,NA,NA,NA,NA,NA,NA,NA,NA,NA,NA,5,"NA","2014-02-27",-13,52,"YEARS","18-64","M","WHITE","White","NOT HISPANIC OR LATINO","Y","Placebo","Pbo","Placebo","Pbo","Placebo","Placebo",2014-03-12,2014-03-12,"H",2014-09-09,2014-09-09 23:59:59,"H","COMPLETED",2014-09-09,NA,2014-03-12,2014-09-09,182,NA,NA,NA,2014-04-23,NA,"WEEK 6","Best Confirmed Overall Response by Investigator","CBOR","Tumor Response","Investigator","RECIST 1.1",2,"PR","Y","Y",3,"WEEK 6","OVRLRESP","Overall Response","PR","PR","INVESTIGATOR",NA,NA,"2014-04-23",6,NA
"CDISCPILOT01","01-701-1118","1118","701","USA","RS","2014-03-12","2014-09-09","2014-03-12","2014-09-09","2014-09-09T13:28",NA,NA,NA,NA,NA,NA,NA,NA,NA,NA,NA,6,"NA","2014-02-27",-13,52,"YEARS","18-64","M","WHITE","White","NOT HISPANIC OR LATINO","Y","Placebo","Pbo","Placebo","Pbo","Placebo","Placebo",2014-03-12,2014-03-12,"H",2014-09-09,2014-09-09 23:59:59,"H","COMPLETED",2014-09-09,NA,2014-03-12,2014-09-09,182,NA,NA,NA,2014-04-23,NA,"WEEK 6","Confirmed Clinical Benefit by Investigator","CCB","Tumor Response","Investigator","RECIST 1.1",1,"Y","Y","Y",3,"WEEK 6","OVRLRESP","Overall Response","PR","PR","INVESTIGATOR",NA,NA,"2014-04-23",6,NA
"CDISCPILOT01","01-701-1118","1118","701","USA","RS","2014-03-12","2014-09-09","2014-03-12","2014-09-09","2014-09-09T13:28",NA,NA,NA,NA,NA,NA,NA,NA,NA,NA,NA,7,"NA","2014-02-27",-13,52,"YEARS","18-64","M","WHITE","White","NOT HISPANIC OR LATINO","Y","Placebo","Pbo","Placebo","Pbo","Placebo","Placebo",2014-03-12,2014-03-12,"H",2014-09-09,2014-09-09 23:59:59,"H","COMPLETED",2014-09-09,NA,2014-03-12,2014-09-09,182,NA,NA,NA,2014-04-23,NA,"WEEK 6","Confirmed Response by Investigator","CRSP","Tumor Response","Investigator","RECIST 1.1",1,"Y","Y","Y",3,"WEEK 6","OVRLRESP","Overall Response","PR","PR","INVESTIGATOR",NA,NA,"2014-04-23",6,NA
"CDISCPILOT01","01-701-1118","1118","701","USA",NA,"2014-03-12","2014-09-09","2014-03-12","2014-09-09","2014-09-09T13:28",NA,NA,NA,NA,NA,NA,NA,NA,NA,NA,NA,8,"NA","2014-02-27",-13,52,"YEARS","18-64","M","WHITE","White","NOT HISPANIC OR LATINO","Y","Placebo","Pbo","Placebo","Pbo","Placebo","Placebo",2014-03-12,2014-03-12,"H",2014-09-09,2014-09-09 23:59:59,"H","COMPLETED",2014-09-09,NA,2014-03-12,2014-09-09,182,NA,NA,NA,NA,NA,NA,"Death","DEATH","Reference Event",NA,NA,0,"N","Y",NA,NA,NA,NA,NA,NA,NA,NA,NA,NA,NA,NA,NA
"CDISCPILOT01","01-701-1118","1118","701","USA","RS","2014-03-12","2014-09-09","2014-03-12","2014-09-09","2014-09-09T13:28",NA,NA,NA,NA,NA,NA,NA,NA,NA,NA,NA,9,"NA","2014-02-27",-13,52,"YEARS","18-64","M","WHITE","White","NOT HISPANIC OR LATINO","Y","Placebo","Pbo","Placebo","Pbo","Placebo","Placebo",2014-03-12,2014-03-12,"H",2014-09-09,2014-09-09 23:59:59,"H","COMPLETED",2014-09-09,NA,2014-03-12,2014-09-09,182,NA,NA,NA,2014-06-04,NA,"WEEK 12","Last Disease Assessment by Investigator","LSTA","Tumor Response","Investigator","RECIST 1.1",2,"PR","Y","Y",5,"WEEK 12","OVRLRESP","Overall Response","PR","PR","INVESTIGATOR",NA,NA,"2014-06-04",12,NA
"CDISCPILOT01","01-701-1118","1118","701","USA",NA,"2014-03-12","2014-09-09","2014-03-12","2014-09-09","2014-09-09T13:28",NA,NA,NA,NA,NA,NA,NA,NA,NA,NA,NA,10,"NA","2014-02-27",-13,52,"YEARS","18-64","M","WHITE","White","NOT HISPANIC OR LATINO","Y","Placebo","Pbo","Placebo","Pbo","Placebo","Placebo",2014-03-12,2014-03-12,"H",2014-09-09,2014-09-09 23:59:59,"H","COMPLETED",2014-09-09,NA,NA,2014-09-09,182,NA,NA,NA,NA,NA,NA,"Measurable Disease at Baseline by Investigator","MDIS",NA,"Investigator","RECIST 1.1",1,"Y","Y",NA,NA,NA,NA,NA,NA,NA,NA,NA,NA,NA,NA,NA
"CDISCPILOT01","01-701-1118","1118","701","USA","RS","2014-03-12","2014-09-09","2014-03-12","2014-09-09","2014-09-09T13:28",NA,NA,NA,NA,NA,NA,NA,NA,NA,NA,NA,11,"NA","2014-02-27",-13,52,"YEARS","18-64","M","WHITE","White","NOT HISPANIC OR LATINO","Y","Placebo","Pbo","Placebo","Pbo","Placebo","Placebo",2014-03-12,2014-03-12,"H",2014-09-09,2014-09-09 23:59:59,"H","COMPLETED",2014-09-09,NA,2014-03-12,2014-09-09,182,NA,NA,NA,2014-04-02,NA,"WEEK 3","Overall Response by Investigator","OVR","Tumor Response","Investigator","RECIST 1.1",3,"SD","Y","Y",2,"WEEK 3","OVRLRESP","Overall Response","SD","SD","INVESTIGATOR",NA,NA,"2014-04-02",3,NA
"CDISCPILOT01","01-701-1118","1118","701","USA","RS","2014-03-12","2014-09-09","2014-03-12","2014-09-09","2014-09-09T13:28",NA,NA,NA,NA,NA,NA,NA,NA,NA,NA,NA,12,"NA","2014-02-27",-13,52,"YEARS","18-64","M","WHITE","White","NOT HISPANIC OR LATINO","Y","Placebo","Pbo","Placebo","Pbo","Placebo","Placebo",2014-03-12,2014-03-12,"H",2014-09-09,2014-09-09 23:59:59,"H","COMPLETED",2014-09-09,NA,2014-03-12,2014-09-09,182,NA,NA,NA,2014-04-23,NA,"WEEK 6","Overall Response by Investigator","OVR","Tumor Response","Investigator","RECIST 1.1",2,"PR","Y","Y",3,"WEEK 6","OVRLRESP","Overall Response","PR","PR","INVESTIGATOR",NA,NA,"2014-04-23",6,NA
"CDISCPILOT01","01-701-1118","1118","701","USA","RS","2014-03-12","2014-09-09","2014-03-12","2014-09-09","2014-09-09T13:28",NA,NA,NA,NA,NA,NA,NA,NA,NA,NA,NA,13,"NA","2014-02-27",-13,52,"YEARS","18-64","M","WHITE","White","NOT HISPANIC OR LATINO","Y","Placebo","Pbo","Placebo","Pbo","Placebo","Placebo",2014-03-12,2014-03-12,"H",2014-09-09,2014-09-09 23:59:59,"H","COMPLETED",2014-09-09,NA,2014-03-12,2014-09-09,182,NA,NA,NA,2014-05-14,NA,"WEEK 9","Overall Response by Investigator","OVR","Tumor Response","Investigator","RECIST 1.1",6,"NE","Y","Y",4,"WEEK 9","OVRLRESP","Overall Response","NE","NE","INVESTIGATOR",NA,NA,"2014-05-14",9,NA
"CDISCPILOT01","01-701-1118","1118","701","USA","RS","2014-03-12","2014-09-09","2014-03-12","2014-09-09","2014-09-09T13:28",NA,NA,NA,NA,NA,NA,NA,NA,NA,NA,NA,14,"NA","2014-02-27",-13,52,"YEARS","18-64","M","WHITE","White","NOT HISPANIC OR LATINO","Y","Placebo","Pbo","Placebo","Pbo","Placebo","Placebo",2014-03-12,2014-03-12,"H",2014-09-09,2014-09-09 23:59:59,"H","COMPLETED",2014-09-09,NA,2014-03-12,2014-09-09,182,NA,NA,NA,2014-06-04,NA,"WEEK 12","Overall Response by Investigator","OVR","Tumor Response","Investigator","RECIST 1.1",2,"PR","Y","Y",5,"WEEK 12","OVRLRESP","Overall Response","PR","PR","INVESTIGATOR",NA,NA,"2014-06-04",12,NA
"CDISCPILOT01","01-701-1118","1118","701","USA",NA,"2014-03-12","2014-09-09","2014-03-12","2014-09-09","2014-09-09T13:28",NA,NA,NA,NA,NA,NA,NA,NA,NA,NA,NA,15,"NA","2014-02-27",-13,52,"YEARS","18-64","M","WHITE","White","NOT HISPANIC OR LATINO","Y","Placebo","Pbo","Placebo","Pbo","Placebo","Placebo",2014-03-12,2014-03-12,"H",2014-09-09,2014-09-09 23:59:59,"H","COMPLETED",2014-09-09,NA,2014-03-12,2014-09-09,182,NA,NA,NA,NA,NA,NA,"Disease Progression by Investigator","PD","Tumor Response","Investigator","RECIST 1.1",0,"N","Y",NA,NA,NA,NA,NA,NA,NA,NA,NA,NA,NA,NA,NA
"CDISCPILOT01","01-701-1118","1118","701","USA","RS","2014-03-12","2014-09-09","2014-03-12","2014-09-09","2014-09-09T13:28",NA,NA,NA,NA,NA,NA,NA,NA,NA,NA,NA,16,"NA","2014-02-27",-13,52,"YEARS","18-64","M","WHITE","White","NOT HISPANIC OR LATINO","Y","Placebo","Pbo","Placebo","Pbo","Placebo","Placebo",2014-03-12,2014-03-12,"H",2014-09-09,2014-09-09 23:59:59,"H","COMPLETED",2014-09-09,NA,2014-03-12,2014-09-09,182,NA,NA,NA,2014-04-23,NA,"WEEK 6","Response by Investigator (confirmation not required)","RSP","Tumor Response","Investigator","RECIST 1.1",1,"Y","Y","Y",3,"WEEK 6","OVRLRESP","Overall Response","PR","PR","INVESTIGATOR",NA,NA,"2014-04-23",6,NA
"CDISCPILOT01","01-701-1130","1130","701","USA",NA,"2014-02-15","2014-08-16","2014-02-15","2014-08-16","2014-08-16T13:10",NA,NA,NA,NA,NA,NA,NA,NA,NA,NA,NA,1,"NA","2014-02-09",-6,84,"YEARS",">64","M","WHITE","White","NOT HISPANIC OR LATINO","Y","Placebo","Pbo","Placebo","Pbo","Placebo","Placebo",2014-02-15,2014-02-15,"H",2014-08-16,2014-08-16 23:59:59,"H","COMPLETED",2014-08-16,NA,2014-02-15,2014-08-16,183,NA,NA,NA,NA,NA,NA,"Best Overall Response of CR/PR by Investigator (confirmation not required)","BCP","Tumor Response","Investigator","RECIST 1.1",0,"N","Y",NA,NA,NA,NA,NA,NA,NA,NA,NA,NA,NA,NA,NA
"CDISCPILOT01","01-701-1130","1130","701","USA","RS","2014-02-15","2014-08-16","2014-02-15","2014-08-16","2014-08-16T13:10",NA,NA,NA,NA,NA,NA,NA,NA,NA,NA,NA,2,"NA","2014-02-09",-6,84,"YEARS",">64","M","WHITE","White","NOT HISPANIC OR LATINO","Y","Placebo","Pbo","Placebo","Pbo","Placebo","Placebo",2014-02-15,2014-02-15,"H",2014-08-16,2014-08-16 23:59:59,"H","COMPLETED",2014-08-16,NA,2014-02-15,2014-08-16,183,NA,NA,NA,2014-03-29,NA,"WEEK 6","Best Overall Response by Investigator (confirmation not required)","BOR","Tumor Response","Investigator","RECIST 1.1",3,"SD","Y","Y",3,"WEEK 6","OVRLRESP","Overall Response","SD","SD","INVESTIGATOR",NA,NA,"2014-03-29",6,NA
"CDISCPILOT01","01-701-1130","1130","701","USA","RS","2014-02-15","2014-08-16","2014-02-15","2014-08-16","2014-08-16T13:10",NA,NA,NA,NA,NA,NA,NA,NA,NA,NA,NA,3,"NA","2014-02-09",-6,84,"YEARS",">64","M","WHITE","White","NOT HISPANIC OR LATINO","Y","Placebo","Pbo","Placebo","Pbo","Placebo","Placebo",2014-02-15,2014-02-15,"H",2014-08-16,2014-08-16 23:59:59,"H","COMPLETED",2014-08-16,NA,2014-02-15,2014-08-16,183,NA,NA,NA,2014-03-29,NA,"WEEK 6","Clinical Benefit by Investigator (confirmation for response not required)","CB","Tumor Response","Investigator","RECIST 1.1",1,"Y","Y","Y",3,"WEEK 6","OVRLRESP","Overall Response","SD","SD","INVESTIGATOR",NA,NA,"2014-03-29",6,NA
"CDISCPILOT01","01-701-1130","1130","701","USA",NA,"2014-02-15","2014-08-16","2014-02-15","2014-08-16","2014-08-16T13:10",NA,NA,NA,NA,NA,NA,NA,NA,NA,NA,NA,4,"NA","2014-02-09",-6,84,"YEARS",">64","M","WHITE","White","NOT HISPANIC OR LATINO","Y","Placebo","Pbo","Placebo","Pbo","Placebo","Placebo",2014-02-15,2014-02-15,"H",2014-08-16,2014-08-16 23:59:59,"H","COMPLETED",2014-08-16,NA,2014-02-15,2014-08-16,183,NA,NA,NA,NA,NA,NA,"Best Confirmed Overall Response of CR/PR by Investigator","CBCP","Tumor Response","Investigator","RECIST 1.1",0,"N","Y",NA,NA,NA,NA,NA,NA,NA,NA,NA,NA,NA,NA,NA
"CDISCPILOT01","01-701-1130","1130","701","USA","RS","2014-02-15","2014-08-16","2014-02-15","2014-08-16","2014-08-16T13:10",NA,NA,NA,NA,NA,NA,NA,NA,NA,NA,NA,5,"NA","2014-02-09",-6,84,"YEARS",">64","M","WHITE","White","NOT HISPANIC OR LATINO","Y","Placebo","Pbo","Placebo","Pbo","Placebo","Placebo",2014-02-15,2014-02-15,"H",2014-08-16,2014-08-16 23:59:59,"H","COMPLETED",2014-08-16,NA,2014-02-15,2014-08-16,183,NA,NA,NA,2014-03-29,NA,"WEEK 6","Best Confirmed Overall Response by Investigator","CBOR","Tumor Response","Investigator","RECIST 1.1",3,"SD","Y","Y",3,"WEEK 6","OVRLRESP","Overall Response","SD","SD","INVESTIGATOR",NA,NA,"2014-03-29",6,NA
"CDISCPILOT01","01-701-1130","1130","701","USA","RS","2014-02-15","2014-08-16","2014-02-15","2014-08-16","2014-08-16T13:10",NA,NA,NA,NA,NA,NA,NA,NA,NA,NA,NA,6,"NA","2014-02-09",-6,84,"YEARS",">64","M","WHITE","White","NOT HISPANIC OR LATINO","Y","Placebo","Pbo","Placebo","Pbo","Placebo","Placebo",2014-02-15,2014-02-15,"H",2014-08-16,2014-08-16 23:59:59,"H","COMPLETED",2014-08-16,NA,2014-02-15,2014-08-16,183,NA,NA,NA,2014-03-29,NA,"WEEK 6","Confirmed Clinical Benefit by Investigator","CCB","Tumor Response","Investigator","RECIST 1.1",1,"Y","Y","Y",3,"WEEK 6","OVRLRESP","Overall Response","SD","SD","INVESTIGATOR",NA,NA,"2014-03-29",6,NA
"CDISCPILOT01","01-701-1130","1130","701","USA",NA,"2014-02-15","2014-08-16","2014-02-15","2014-08-16","2014-08-16T13:10",NA,NA,NA,NA,NA,NA,NA,NA,NA,NA,NA,7,"NA","2014-02-09",-6,84,"YEARS",">64","M","WHITE","White","NOT HISPANIC OR LATINO","Y","Placebo","Pbo","Placebo","Pbo","Placebo","Placebo",2014-02-15,2014-02-15,"H",2014-08-16,2014-08-16 23:59:59,"H","COMPLETED",2014-08-16,NA,2014-02-15,2014-08-16,183,NA,NA,NA,NA,NA,NA,"Confirmed Response by Investigator","CRSP","Tumor Response","Investigator","RECIST 1.1",0,"N","Y",NA,NA,NA,NA,NA,NA,NA,NA,NA,NA,NA,NA,NA
"CDISCPILOT01","01-701-1130","1130","701","USA",NA,"2014-02-15","2014-08-16","2014-02-15","2014-08-16","2014-08-16T13:10",NA,NA,NA,NA,NA,NA,NA,NA,NA,NA,NA,8,"NA","2014-02-09",-6,84,"YEARS",">64","M","WHITE","White","NOT HISPANIC OR LATINO","Y","Placebo","Pbo","Placebo","Pbo","Placebo","Placebo",2014-02-15,2014-02-15,"H",2014-08-16,2014-08-16 23:59:59,"H","COMPLETED",2014-08-16,NA,2014-02-15,2014-08-16,183,NA,NA,NA,NA,NA,NA,"Death","DEATH","Reference Event",NA,NA,0,"N","Y",NA,NA,NA,NA,NA,NA,NA,NA,NA,NA,NA,NA,NA
"CDISCPILOT01","01-701-1130","1130","701","USA","RS","2014-02-15","2014-08-16","2014-02-15","2014-08-16","2014-08-16T13:10",NA,NA,NA,NA,NA,NA,NA,NA,NA,NA,NA,9,"NA","2014-02-09",-6,84,"YEARS",">64","M","WHITE","White","NOT HISPANIC OR LATINO","Y","Placebo","Pbo","Placebo","Pbo","Placebo","Placebo",2014-02-15,2014-02-15,"H",2014-08-16,2014-08-16 23:59:59,"H","COMPLETED",2014-08-16,NA,2014-02-15,2014-08-16,183,NA,NA,NA,2014-04-19,NA,"WEEK 9","Last Disease Assessment by Investigator","LSTA","Tumor Response","Investigator","RECIST 1.1",5,"PD","Y","Y",4,"WEEK 9","OVRLRESP","Overall Response","PD","PD","INVESTIGATOR",NA,NA,"2014-04-19",9,NA
"CDISCPILOT01","01-701-1130","1130","701","USA",NA,"2014-02-15","2014-08-16","2014-02-15","2014-08-16","2014-08-16T13:10",NA,NA,NA,NA,NA,NA,NA,NA,NA,NA,NA,10,"NA","2014-02-09",-6,84,"YEARS",">64","M","WHITE","White","NOT HISPANIC OR LATINO","Y","Placebo","Pbo","Placebo","Pbo","Placebo","Placebo",2014-02-15,2014-02-15,"H",2014-08-16,2014-08-16 23:59:59,"H","COMPLETED",2014-08-16,NA,NA,2014-08-16,183,NA,NA,NA,NA,NA,NA,"Measurable Disease at Baseline by Investigator","MDIS",NA,"Investigator","RECIST 1.1",1,"Y","Y",NA,NA,NA,NA,NA,NA,NA,NA,NA,NA,NA,NA,NA
"CDISCPILOT01","01-701-1130","1130","701","USA","RS","2014-02-15","2014-08-16","2014-02-15","2014-08-16","2014-08-16T13:10",NA,NA,NA,NA,NA,NA,NA,NA,NA,NA,NA,11,"NA","2014-02-09",-6,84,"YEARS",">64","M","WHITE","White","NOT HISPANIC OR LATINO","Y","Placebo","Pbo","Placebo","Pbo","Placebo","Placebo",2014-02-15,2014-02-15,"H",2014-08-16,2014-08-16 23:59:59,"H","COMPLETED",2014-08-16,NA,2014-02-15,2014-08-16,183,NA,NA,NA,2014-03-08,NA,"WEEK 3","Overall Response by Investigator","OVR","Tumor Response","Investigator","RECIST 1.1",3,"SD","Y","Y",2,"WEEK 3","OVRLRESP","Overall Response","SD","SD","INVESTIGATOR",NA,NA,"2014-03-08",3,NA
"CDISCPILOT01","01-701-1130","1130","701","USA","RS","2014-02-15","2014-08-16","2014-02-15","2014-08-16","2014-08-16T13:10",NA,NA,NA,NA,NA,NA,NA,NA,NA,NA,NA,12,"NA","2014-02-09",-6,84,"YEARS",">64","M","WHITE","White","NOT HISPANIC OR LATINO","Y","Placebo","Pbo","Placebo","Pbo","Placebo","Placebo",2014-02-15,2014-02-15,"H",2014-08-16,2014-08-16 23:59:59,"H","COMPLETED",2014-08-16,NA,2014-02-15,2014-08-16,183,NA,NA,NA,2014-03-29,NA,"WEEK 6","Overall Response by Investigator","OVR","Tumor Response","Investigator","RECIST 1.1",3,"SD","Y","Y",3,"WEEK 6","OVRLRESP","Overall Response","SD","SD","INVESTIGATOR",NA,NA,"2014-03-29",6,NA
"CDISCPILOT01","01-701-1130","1130","701","USA","RS","2014-02-15","2014-08-16","2014-02-15","2014-08-16","2014-08-16T13:10",NA,NA,NA,NA,NA,NA,NA,NA,NA,NA,NA,13,"NA","2014-02-09",-6,84,"YEARS",">64","M","WHITE","White","NOT HISPANIC OR LATINO","Y","Placebo","Pbo","Placebo","Pbo","Placebo","Placebo",2014-02-15,2014-02-15,"H",2014-08-16,2014-08-16 23:59:59,"H","COMPLETED",2014-08-16,NA,2014-02-15,2014-08-16,183,NA,NA,NA,2014-04-19,NA,"WEEK 9","Overall Response by Investigator","OVR","Tumor Response","Investigator","RECIST 1.1",5,"PD","Y","Y",4,"WEEK 9","OVRLRESP","Overall Response","PD","PD","INVESTIGATOR",NA,NA,"2014-04-19",9,NA
"CDISCPILOT01","01-701-1130","1130","701","USA","RS","2014-02-15","2014-08-16","2014-02-15","2014-08-16","2014-08-16T13:10",NA,NA,NA,NA,NA,NA,NA,NA,NA,NA,NA,14,"NA","2014-02-09",-6,84,"YEARS",">64","M","WHITE","White","NOT HISPANIC OR LATINO","Y","Placebo","Pbo","Placebo","Pbo","Placebo","Placebo",2014-02-15,2014-02-15,"H",2014-08-16,2014-08-16 23:59:59,"H","COMPLETED",2014-08-16,NA,2014-02-15,2014-08-16,183,NA,NA,NA,2014-04-19,NA,"WEEK 9","Disease Progression by Investigator","PD","Tumor Response","Investigator","RECIST 1.1",1,"Y","Y","Y",4,"WEEK 9","OVRLRESP","Overall Response","PD","PD","INVESTIGATOR",NA,NA,"2014-04-19",9,NA
"CDISCPILOT01","01-701-1130","1130","701","USA",NA,"2014-02-15","2014-08-16","2014-02-15","2014-08-16","2014-08-16T13:10",NA,NA,NA,NA,NA,NA,NA,NA,NA,NA,NA,15,"NA","2014-02-09",-6,84,"YEARS",">64","M","WHITE","White","NOT HISPANIC OR LATINO","Y","Placebo","Pbo","Placebo","Pbo","Placebo","Placebo",2014-02-15,2014-02-15,"H",2014-08-16,2014-08-16 23:59:59,"H","COMPLETED",2014-08-16,NA,2014-02-15,2014-08-16,183,NA,NA,NA,NA,NA,NA,"Response by Investigator (confirmation not required)","RSP","Tumor Response","Investigator","RECIST 1.1",0,"N","Y",NA,NA,NA,NA,NA,NA,NA,NA,NA,NA,NA,NA,NA
"CDISCPILOT01","01-701-1133","1133","701","USA","RS","2012-10-28","2013-04-29","2012-10-28","2013-04-28","2013-04-29T10:13",NA,NA,NA,NA,NA,NA,NA,NA,NA,NA,NA,1,"NA","2012-10-23",-5,81,"YEARS",">64","F","WHITE","White","NOT HISPANIC OR LATINO","Y","Xanomeline High Dose","Xan_Hi","Xanomeline High Dose","Xan_Hi","Xanomeline High Dose","Xanomeline High Dose",2012-10-28,2012-10-28,"H",2013-04-28,2013-04-28 23:59:59,"H","COMPLETED",2013-04-29,NA,2012-10-28,2013-04-29,183,NA,NA,NA,2012-12-09,NA,"WEEK 6","Best Overall Response of CR/PR by Investigator (confirmation not required)","BCP","Tumor Response","Investigator","RECIST 1.1",1,"Y","Y","Y",3,"WEEK 6","OVRLRESP","Overall Response","CR","CR","INVESTIGATOR",NA,NA,"2012-12-09",6,NA
"CDISCPILOT01","01-701-1133","1133","701","USA","RS","2012-10-28","2013-04-29","2012-10-28","2013-04-28","2013-04-29T10:13",NA,NA,NA,NA,NA,NA,NA,NA,NA,NA,NA,2,"NA","2012-10-23",-5,81,"YEARS",">64","F","WHITE","White","NOT HISPANIC OR LATINO","Y","Xanomeline High Dose","Xan_Hi","Xanomeline High Dose","Xan_Hi","Xanomeline High Dose","Xanomeline High Dose",2012-10-28,2012-10-28,"H",2013-04-28,2013-04-28 23:59:59,"H","COMPLETED",2013-04-29,NA,2012-10-28,2013-04-29,183,NA,NA,NA,2012-12-09,NA,"WEEK 6","Best Overall Response by Investigator (confirmation not required)","BOR","Tumor Response","Investigator","RECIST 1.1",1,"CR","Y","Y",3,"WEEK 6","OVRLRESP","Overall Response","CR","CR","INVESTIGATOR",NA,NA,"2012-12-09",6,NA
"CDISCPILOT01","01-701-1133","1133","701","USA","RS","2012-10-28","2013-04-29","2012-10-28","2013-04-28","2013-04-29T10:13",NA,NA,NA,NA,NA,NA,NA,NA,NA,NA,NA,3,"NA","2012-10-23",-5,81,"YEARS",">64","F","WHITE","White","NOT HISPANIC OR LATINO","Y","Xanomeline High Dose","Xan_Hi","Xanomeline High Dose","Xan_Hi","Xanomeline High Dose","Xanomeline High Dose",2012-10-28,2012-10-28,"H",2013-04-28,2013-04-28 23:59:59,"H","COMPLETED",2013-04-29,NA,2012-10-28,2013-04-29,183,NA,NA,NA,2012-11-18,NA,"WEEK 3","Clinical Benefit by Investigator (confirmation for response not required)","CB","Tumor Response","Investigator","RECIST 1.1",1,"Y","Y","Y",2,"WEEK 3","OVRLRESP","Overall Response","PR","PR","INVESTIGATOR",NA,NA,"2012-11-18",3,NA
"CDISCPILOT01","01-701-1133","1133","701","USA",NA,"2012-10-28","2013-04-29","2012-10-28","2013-04-28","2013-04-29T10:13",NA,NA,NA,NA,NA,NA,NA,NA,NA,NA,NA,4,"NA","2012-10-23",-5,81,"YEARS",">64","F","WHITE","White","NOT HISPANIC OR LATINO","Y","Xanomeline High Dose","Xan_Hi","Xanomeline High Dose","Xan_Hi","Xanomeline High Dose","Xanomeline High Dose",2012-10-28,2012-10-28,"H",2013-04-28,2013-04-28 23:59:59,"H","COMPLETED",2013-04-29,NA,2012-10-28,2013-04-29,183,NA,NA,NA,NA,NA,NA,"Best Confirmed Overall Response of CR/PR by Investigator","CBCP","Tumor Response","Investigator","RECIST 1.1",0,"N","Y",NA,NA,NA,NA,NA,NA,NA,NA,NA,NA,NA,NA,NA
"CDISCPILOT01","01-701-1133","1133","701","USA","RS","2012-10-28","2013-04-29","2012-10-28","2013-04-28","2013-04-29T10:13",NA,NA,NA,NA,NA,NA,NA,NA,NA,NA,NA,5,"NA","2012-10-23",-5,81,"YEARS",">64","F","WHITE","White","NOT HISPANIC OR LATINO","Y","Xanomeline High Dose","Xan_Hi","Xanomeline High Dose","Xan_Hi","Xanomeline High Dose","Xanomeline High Dose",2012-10-28,2012-10-28,"H",2013-04-28,2013-04-28 23:59:59,"H","COMPLETED",2013-04-29,NA,2012-10-28,2013-04-29,183,NA,NA,NA,2012-12-09,NA,"WEEK 6","Best Confirmed Overall Response by Investigator","CBOR","Tumor Response","Investigator","RECIST 1.1",3,"SD","Y","Y",3,"WEEK 6","OVRLRESP","Overall Response","CR","CR","INVESTIGATOR",NA,NA,"2012-12-09",6,NA
"CDISCPILOT01","01-701-1133","1133","701","USA","RS","2012-10-28","2013-04-29","2012-10-28","2013-04-28","2013-04-29T10:13",NA,NA,NA,NA,NA,NA,NA,NA,NA,NA,NA,6,"NA","2012-10-23",-5,81,"YEARS",">64","F","WHITE","White","NOT HISPANIC OR LATINO","Y","Xanomeline High Dose","Xan_Hi","Xanomeline High Dose","Xan_Hi","Xanomeline High Dose","Xanomeline High Dose",2012-10-28,2012-10-28,"H",2013-04-28,2013-04-28 23:59:59,"H","COMPLETED",2013-04-29,NA,2012-10-28,2013-04-29,183,NA,NA,NA,2012-12-09,NA,"WEEK 6","Confirmed Clinical Benefit by Investigator","CCB","Tumor Response","Investigator","RECIST 1.1",1,"Y","Y","Y",3,"WEEK 6","OVRLRESP","Overall Response","CR","CR","INVESTIGATOR",NA,NA,"2012-12-09",6,NA
"CDISCPILOT01","01-701-1133","1133","701","USA",NA,"2012-10-28","2013-04-29","2012-10-28","2013-04-28","2013-04-29T10:13",NA,NA,NA,NA,NA,NA,NA,NA,NA,NA,NA,7,"NA","2012-10-23",-5,81,"YEARS",">64","F","WHITE","White","NOT HISPANIC OR LATINO","Y","Xanomeline High Dose","Xan_Hi","Xanomeline High Dose","Xan_Hi","Xanomeline High Dose","Xanomeline High Dose",2012-10-28,2012-10-28,"H",2013-04-28,2013-04-28 23:59:59,"H","COMPLETED",2013-04-29,NA,2012-10-28,2013-04-29,183,NA,NA,NA,NA,NA,NA,"Confirmed Response by Investigator","CRSP","Tumor Response","Investigator","RECIST 1.1",0,"N","Y",NA,NA,NA,NA,NA,NA,NA,NA,NA,NA,NA,NA,NA
"CDISCPILOT01","01-701-1133","1133","701","USA",NA,"2012-10-28","2013-04-29","2012-10-28","2013-04-28","2013-04-29T10:13",NA,NA,NA,NA,NA,NA,NA,NA,NA,NA,NA,8,"NA","2012-10-23",-5,81,"YEARS",">64","F","WHITE","White","NOT HISPANIC OR LATINO","Y","Xanomeline High Dose","Xan_Hi","Xanomeline High Dose","Xan_Hi","Xanomeline High Dose","Xanomeline High Dose",2012-10-28,2012-10-28,"H",2013-04-28,2013-04-28 23:59:59,"H","COMPLETED",2013-04-29,NA,2012-10-28,2013-04-29,183,NA,NA,NA,NA,NA,NA,"Death","DEATH","Reference Event",NA,NA,0,"N","Y",NA,NA,NA,NA,NA,NA,NA,NA,NA,NA,NA,NA,NA
"CDISCPILOT01","01-701-1133","1133","701","USA","RS","2012-10-28","2013-04-29","2012-10-28","2013-04-28","2013-04-29T10:13",NA,NA,NA,NA,NA,NA,NA,NA,NA,NA,NA,9,"NA","2012-10-23",-5,81,"YEARS",">64","F","WHITE","White","NOT HISPANIC OR LATINO","Y","Xanomeline High Dose","Xan_Hi","Xanomeline High Dose","Xan_Hi","Xanomeline High Dose","Xanomeline High Dose",2012-10-28,2012-10-28,"H",2013-04-28,2013-04-28 23:59:59,"H","COMPLETED",2013-04-29,NA,2012-10-28,2013-04-29,183,NA,NA,NA,2012-12-30,NA,"WEEK 9","Last Disease Assessment by Investigator","LSTA","Tumor Response","Investigator","RECIST 1.1",5,"PD","Y","Y",4,"WEEK 9","OVRLRESP","Overall Response","PD","PD","INVESTIGATOR",NA,NA,"2012-12-30",9,NA
"CDISCPILOT01","01-701-1133","1133","701","USA",NA,"2012-10-28","2013-04-29","2012-10-28","2013-04-28","2013-04-29T10:13",NA,NA,NA,NA,NA,NA,NA,NA,NA,NA,NA,10,"NA","2012-10-23",-5,81,"YEARS",">64","F","WHITE","White","NOT HISPANIC OR LATINO","Y","Xanomeline High Dose","Xan_Hi","Xanomeline High Dose","Xan_Hi","Xanomeline High Dose","Xanomeline High Dose",2012-10-28,2012-10-28,"H",2013-04-28,2013-04-28 23:59:59,"H","COMPLETED",2013-04-29,NA,NA,2013-04-29,183,NA,NA,NA,NA,NA,NA,"Measurable Disease at Baseline by Investigator","MDIS",NA,"Investigator","RECIST 1.1",1,"Y","Y",NA,NA,NA,NA,NA,NA,NA,NA,NA,NA,NA,NA,NA
"CDISCPILOT01","01-701-1133","1133","701","USA","RS","2012-10-28","2013-04-29","2012-10-28","2013-04-28","2013-04-29T10:13",NA,NA,NA,NA,NA,NA,NA,NA,NA,NA,NA,11,"NA","2012-10-23",-5,81,"YEARS",">64","F","WHITE","White","NOT HISPANIC OR LATINO","Y","Xanomeline High Dose","Xan_Hi","Xanomeline High Dose","Xan_Hi","Xanomeline High Dose","Xanomeline High Dose",2012-10-28,2012-10-28,"H",2013-04-28,2013-04-28 23:59:59,"H","COMPLETED",2013-04-29,NA,2012-10-28,2013-04-29,183,NA,NA,NA,2012-11-18,NA,"WEEK 3","Overall Response by Investigator","OVR","Tumor Response","Investigator","RECIST 1.1",2,"PR","Y","Y",2,"WEEK 3","OVRLRESP","Overall Response","PR","PR","INVESTIGATOR",NA,NA,"2012-11-18",3,NA
"CDISCPILOT01","01-701-1133","1133","701","USA","RS","2012-10-28","2013-04-29","2012-10-28","2013-04-28","2013-04-29T10:13",NA,NA,NA,NA,NA,NA,NA,NA,NA,NA,NA,12,"NA","2012-10-23",-5,81,"YEARS",">64","F","WHITE","White","NOT HISPANIC OR LATINO","Y","Xanomeline High Dose","Xan_Hi","Xanomeline High Dose","Xan_Hi","Xanomeline High Dose","Xanomeline High Dose",2012-10-28,2012-10-28,"H",2013-04-28,2013-04-28 23:59:59,"H","COMPLETED",2013-04-29,NA,2012-10-28,2013-04-29,183,NA,NA,NA,2012-12-09,NA,"WEEK 6","Overall Response by Investigator","OVR","Tumor Response","Investigator","RECIST 1.1",1,"CR","Y","Y",3,"WEEK 6","OVRLRESP","Overall Response","CR","CR","INVESTIGATOR",NA,NA,"2012-12-09",6,NA
"CDISCPILOT01","01-701-1133","1133","701","USA","RS","2012-10-28","2013-04-29","2012-10-28","2013-04-28","2013-04-29T10:13",NA,NA,NA,NA,NA,NA,NA,NA,NA,NA,NA,13,"NA","2012-10-23",-5,81,"YEARS",">64","F","WHITE","White","NOT HISPANIC OR LATINO","Y","Xanomeline High Dose","Xan_Hi","Xanomeline High Dose","Xan_Hi","Xanomeline High Dose","Xanomeline High Dose",2012-10-28,2012-10-28,"H",2013-04-28,2013-04-28 23:59:59,"H","COMPLETED",2013-04-29,NA,2012-10-28,2013-04-29,183,NA,NA,NA,2012-12-30,NA,"WEEK 9","Overall Response by Investigator","OVR","Tumor Response","Investigator","RECIST 1.1",5,"PD","Y","Y",4,"WEEK 9","OVRLRESP","Overall Response","PD","PD","INVESTIGATOR",NA,NA,"2012-12-30",9,NA
"CDISCPILOT01","01-701-1133","1133","701","USA","RS","2012-10-28","2013-04-29","2012-10-28","2013-04-28","2013-04-29T10:13",NA,NA,NA,NA,NA,NA,NA,NA,NA,NA,NA,14,"NA","2012-10-23",-5,81,"YEARS",">64","F","WHITE","White","NOT HISPANIC OR LATINO","Y","Xanomeline High Dose","Xan_Hi","Xanomeline High Dose","Xan_Hi","Xanomeline High Dose","Xanomeline High Dose",2012-10-28,2012-10-28,"H",2013-04-28,2013-04-28 23:59:59,"H","COMPLETED",2013-04-29,NA,2012-10-28,2013-04-29,183,NA,NA,NA,2012-12-30,NA,"WEEK 9","Disease Progression by Investigator","PD","Tumor Response","Investigator","RECIST 1.1",1,"Y","Y","Y",4,"WEEK 9","OVRLRESP","Overall Response","PD","PD","INVESTIGATOR",NA,NA,"2012-12-30",9,NA
"CDISCPILOT01","01-701-1133","1133","701","USA","RS","2012-10-28","2013-04-29","2012-10-28","2013-04-28","2013-04-29T10:13",NA,NA,NA,NA,NA,NA,NA,NA,NA,NA,NA,15,"NA","2012-10-23",-5,81,"YEARS",">64","F","WHITE","White","NOT HISPANIC OR LATINO","Y","Xanomeline High Dose","Xan_Hi","Xanomeline High Dose","Xan_Hi","Xanomeline High Dose","Xanomeline High Dose",2012-10-28,2012-10-28,"H",2013-04-28,2013-04-28 23:59:59,"H","COMPLETED",2013-04-29,NA,2012-10-28,2013-04-29,183,NA,NA,NA,2012-11-18,NA,"WEEK 3","Response by Investigator (confirmation not required)","RSP","Tumor Response","Investigator","RECIST 1.1",1,"Y","Y","Y",2,"WEEK 3","OVRLRESP","Overall Response","PR","PR","INVESTIGATOR",NA,NA,"2012-11-18",3,NA
"CDISCPILOT01","01-701-1145","1145","701","USA",NA,NA,NA,NA,NA,"2013-09-19",2013-09-05,NA,NA,NA,NA,NA,NA,NA,NA,NA,NA,1,"NA","2013-09-05",NA,57,"YEARS","18-64","F","WHITE","White","NOT HISPANIC OR LATINO","N","Screen Failure","Scrnfail","Screen Failure","Scrnfail","Screen Failure","Screen Failure",NA,NA,NA,NA,NA,NA,NA,NA,NA,NA,NA,NA,NA,NA,NA,NA,NA,NA,"Best Overall Response of CR/PR by Investigator (confirmation not required)","BCP","Tumor Response","Investigator","RECIST 1.1",0,"N","Y",NA,NA,NA,NA,NA,NA,NA,NA,NA,NA,NA,NA,NA
"CDISCPILOT01","01-701-1145","1145","701","USA",NA,NA,NA,NA,NA,"2013-09-19",2013-09-05,NA,NA,NA,NA,NA,NA,NA,NA,NA,NA,2,"NA","2013-09-05",NA,57,"YEARS","18-64","F","WHITE","White","NOT HISPANIC OR LATINO","N","Screen Failure","Scrnfail","Screen Failure","Scrnfail","Screen Failure","Screen Failure",NA,NA,NA,NA,NA,NA,NA,NA,NA,NA,NA,NA,NA,NA,NA,NA,NA,NA,"Best Overall Response by Investigator (confirmation not required)","BOR","Tumor Response","Investigator","RECIST 1.1",7,"MISSING","Y",NA,NA,NA,NA,NA,NA,NA,NA,NA,NA,NA,NA,NA
"CDISCPILOT01","01-701-1145","1145","701","USA",NA,NA,NA,NA,NA,"2013-09-19",2013-09-05,NA,NA,NA,NA,NA,NA,NA,NA,NA,NA,3,"NA","2013-09-05",NA,57,"YEARS","18-64","F","WHITE","White","NOT HISPANIC OR LATINO","N","Screen Failure","Scrnfail","Screen Failure","Scrnfail","Screen Failure","Screen Failure",NA,NA,NA,NA,NA,NA,NA,NA,NA,NA,NA,NA,NA,NA,NA,NA,NA,NA,"Clinical Benefit by Investigator (confirmation for response not required)","CB","Tumor Response","Investigator","RECIST 1.1",0,"N","Y",NA,NA,NA,NA,NA,NA,NA,NA,NA,NA,NA,NA,NA
"CDISCPILOT01","01-701-1145","1145","701","USA",NA,NA,NA,NA,NA,"2013-09-19",2013-09-05,NA,NA,NA,NA,NA,NA,NA,NA,NA,NA,4,"NA","2013-09-05",NA,57,"YEARS","18-64","F","WHITE","White","NOT HISPANIC OR LATINO","N","Screen Failure","Scrnfail","Screen Failure","Scrnfail","Screen Failure","Screen Failure",NA,NA,NA,NA,NA,NA,NA,NA,NA,NA,NA,NA,NA,NA,NA,NA,NA,NA,"Best Confirmed Overall Response of CR/PR by Investigator","CBCP","Tumor Response","Investigator","RECIST 1.1",0,"N","Y",NA,NA,NA,NA,NA,NA,NA,NA,NA,NA,NA,NA,NA
"CDISCPILOT01","01-701-1145","1145","701","USA",NA,NA,NA,NA,NA,"2013-09-19",2013-09-05,NA,NA,NA,NA,NA,NA,NA,NA,NA,NA,5,"NA","2013-09-05",NA,57,"YEARS","18-64","F","WHITE","White","NOT HISPANIC OR LATINO","N","Screen Failure","Scrnfail","Screen Failure","Scrnfail","Screen Failure","Screen Failure",NA,NA,NA,NA,NA,NA,NA,NA,NA,NA,NA,NA,NA,NA,NA,NA,NA,NA,"Best Confirmed Overall Response by Investigator","CBOR","Tumor Response","Investigator","RECIST 1.1",7,"MISSING","Y",NA,NA,NA,NA,NA,NA,NA,NA,NA,NA,NA,NA,NA
"CDISCPILOT01","01-701-1145","1145","701","USA",NA,NA,NA,NA,NA,"2013-09-19",2013-09-05,NA,NA,NA,NA,NA,NA,NA,NA,NA,NA,6,"NA","2013-09-05",NA,57,"YEARS","18-64","F","WHITE","White","NOT HISPANIC OR LATINO","N","Screen Failure","Scrnfail","Screen Failure","Scrnfail","Screen Failure","Screen Failure",NA,NA,NA,NA,NA,NA,NA,NA,NA,NA,NA,NA,NA,NA,NA,NA,NA,NA,"Confirmed Clinical Benefit by Investigator","CCB","Tumor Response","Investigator","RECIST 1.1",0,"N","Y",NA,NA,NA,NA,NA,NA,NA,NA,NA,NA,NA,NA,NA
"CDISCPILOT01","01-701-1145","1145","701","USA",NA,NA,NA,NA,NA,"2013-09-19",2013-09-05,NA,NA,NA,NA,NA,NA,NA,NA,NA,NA,7,"NA","2013-09-05",NA,57,"YEARS","18-64","F","WHITE","White","NOT HISPANIC OR LATINO","N","Screen Failure","Scrnfail","Screen Failure","Scrnfail","Screen Failure","Screen Failure",NA,NA,NA,NA,NA,NA,NA,NA,NA,NA,NA,NA,NA,NA,NA,NA,NA,NA,"Confirmed Response by Investigator","CRSP","Tumor Response","Investigator","RECIST 1.1",0,"N","Y",NA,NA,NA,NA,NA,NA,NA,NA,NA,NA,NA,NA,NA
"CDISCPILOT01","01-701-1145","1145","701","USA",NA,NA,NA,NA,NA,"2013-09-19",2013-09-05,NA,NA,NA,NA,NA,NA,NA,NA,NA,NA,8,"NA","2013-09-05",NA,57,"YEARS","18-64","F","WHITE","White","NOT HISPANIC OR LATINO","N","Screen Failure","Scrnfail","Screen Failure","Scrnfail","Screen Failure","Screen Failure",NA,NA,NA,NA,NA,NA,NA,NA,NA,NA,NA,NA,NA,NA,NA,NA,NA,NA,"Death","DEATH","Reference Event",NA,NA,0,"N","Y",NA,NA,NA,NA,NA,NA,NA,NA,NA,NA,NA,NA,NA
"CDISCPILOT01","01-701-1145","1145","701","USA",NA,NA,NA,NA,NA,"2013-09-19",2013-09-05,NA,NA,NA,NA,NA,NA,NA,NA,NA,NA,9,"NA","2013-09-05",NA,57,"YEARS","18-64","F","WHITE","White","NOT HISPANIC OR LATINO","N","Screen Failure","Scrnfail","Screen Failure","Scrnfail","Screen Failure","Screen Failure",NA,NA,NA,NA,NA,NA,NA,NA,NA,NA,NA,NA,NA,NA,NA,NA,NA,NA,"Last Disease Assessment by Investigator","LSTA","Tumor Response","Investigator","RECIST 1.1",NA,NA,"Y",NA,NA,NA,NA,NA,NA,NA,NA,NA,NA,NA,NA,NA
"CDISCPILOT01","01-701-1145","1145","701","USA",NA,NA,NA,NA,NA,"2013-09-19",2013-09-05,NA,NA,NA,NA,NA,NA,NA,NA,NA,NA,10,"NA","2013-09-05",NA,57,"YEARS","18-64","F","WHITE","White","NOT HISPANIC OR LATINO","N","Screen Failure","Scrnfail","Screen Failure","Scrnfail","Screen Failure","Screen Failure",NA,NA,NA,NA,NA,NA,NA,NA,NA,NA,NA,NA,NA,NA,NA,NA,NA,NA,"Measurable Disease at Baseline by Investigator","MDIS",NA,"Investigator","RECIST 1.1",0,"N","Y",NA,NA,NA,NA,NA,NA,NA,NA,NA,NA,NA,NA,NA
"CDISCPILOT01","01-701-1145","1145","701","USA",NA,NA,NA,NA,NA,"2013-09-19",2013-09-05,NA,NA,NA,NA,NA,NA,NA,NA,NA,NA,11,"NA","2013-09-05",NA,57,"YEARS","18-64","F","WHITE","White","NOT HISPANIC OR LATINO","N","Screen Failure","Scrnfail","Screen Failure","Scrnfail","Screen Failure","Screen Failure",NA,NA,NA,NA,NA,NA,NA,NA,NA,NA,NA,NA,NA,NA,NA,NA,NA,NA,"Disease Progression by Investigator","PD","Tumor Response","Investigator","RECIST 1.1",0,"N","Y",NA,NA,NA,NA,NA,NA,NA,NA,NA,NA,NA,NA,NA
"CDISCPILOT01","01-701-1145","1145","701","USA",NA,NA,NA,NA,NA,"2013-09-19",2013-09-05,NA,NA,NA,NA,NA,NA,NA,NA,NA,NA,12,"NA","2013-09-05",NA,57,"YEARS","18-64","F","WHITE","White","NOT HISPANIC OR LATINO","N","Screen Failure","Scrnfail","Screen Failure","Scrnfail","Screen Failure","Screen Failure",NA,NA,NA,NA,NA,NA,NA,NA,NA,NA,NA,NA,NA,NA,NA,NA,NA,NA,"Response by Investigator (confirmation not required)","RSP","Tumor Response","Investigator","RECIST 1.1",0,"N","Y",NA,NA,NA,NA,NA,NA,NA,NA,NA,NA,NA,NA,NA
"CDISCPILOT01","01-701-1146","1146","701","USA",NA,"2013-05-20","2013-06-30","2013-05-20","2013-06-26","2013-07-15",NA,NA,NA,NA,NA,NA,NA,NA,NA,NA,NA,1,"NA","2013-05-07",-13,75,"YEARS",">64","F","WHITE","White","NOT HISPANIC OR LATINO","Y","Xanomeline High Dose","Xan_Hi","Xanomeline High Dose","Xan_Hi","Xanomeline High Dose","Xanomeline High Dose",2013-05-20,2013-05-20,"H",2013-06-26,2013-06-26 23:59:59,"H","DISCONTINUED",2013-06-30,NA,2013-05-20,2013-06-30,38,NA,NA,NA,NA,NA,NA,"Best Overall Response of CR/PR by Investigator (confirmation not required)","BCP","Tumor Response","Investigator","RECIST 1.1",0,"N","Y",NA,NA,NA,NA,NA,NA,NA,NA,NA,NA,NA,NA,NA
"CDISCPILOT01","01-701-1146","1146","701","USA",NA,"2013-05-20","2013-06-30","2013-05-20","2013-06-26","2013-07-15",NA,NA,NA,NA,NA,NA,NA,NA,NA,NA,NA,2,"NA","2013-05-07",-13,75,"YEARS",">64","F","WHITE","White","NOT HISPANIC OR LATINO","Y","Xanomeline High Dose","Xan_Hi","Xanomeline High Dose","Xan_Hi","Xanomeline High Dose","Xanomeline High Dose",2013-05-20,2013-05-20,"H",2013-06-26,2013-06-26 23:59:59,"H","DISCONTINUED",2013-06-30,NA,2013-05-20,2013-06-30,38,NA,NA,NA,NA,NA,NA,"Best Overall Response by Investigator (confirmation not required)","BOR","Tumor Response","Investigator","RECIST 1.1",7,"MISSING","Y",NA,NA,NA,NA,NA,NA,NA,NA,NA,NA,NA,NA,NA
"CDISCPILOT01","01-701-1146","1146","701","USA",NA,"2013-05-20","2013-06-30","2013-05-20","2013-06-26","2013-07-15",NA,NA,NA,NA,NA,NA,NA,NA,NA,NA,NA,3,"NA","2013-05-07",-13,75,"YEARS",">64","F","WHITE","White","NOT HISPANIC OR LATINO","Y","Xanomeline High Dose","Xan_Hi","Xanomeline High Dose","Xan_Hi","Xanomeline High Dose","Xanomeline High Dose",2013-05-20,2013-05-20,"H",2013-06-26,2013-06-26 23:59:59,"H","DISCONTINUED",2013-06-30,NA,2013-05-20,2013-06-30,38,NA,NA,NA,NA,NA,NA,"Clinical Benefit by Investigator (confirmation for response not required)","CB","Tumor Response","Investigator","RECIST 1.1",0,"N","Y",NA,NA,NA,NA,NA,NA,NA,NA,NA,NA,NA,NA,NA
"CDISCPILOT01","01-701-1146","1146","701","USA",NA,"2013-05-20","2013-06-30","2013-05-20","2013-06-26","2013-07-15",NA,NA,NA,NA,NA,NA,NA,NA,NA,NA,NA,4,"NA","2013-05-07",-13,75,"YEARS",">64","F","WHITE","White","NOT HISPANIC OR LATINO","Y","Xanomeline High Dose","Xan_Hi","Xanomeline High Dose","Xan_Hi","Xanomeline High Dose","Xanomeline High Dose",2013-05-20,2013-05-20,"H",2013-06-26,2013-06-26 23:59:59,"H","DISCONTINUED",2013-06-30,NA,2013-05-20,2013-06-30,38,NA,NA,NA,NA,NA,NA,"Best Confirmed Overall Response of CR/PR by Investigator","CBCP","Tumor Response","Investigator","RECIST 1.1",0,"N","Y",NA,NA,NA,NA,NA,NA,NA,NA,NA,NA,NA,NA,NA
"CDISCPILOT01","01-701-1146","1146","701","USA",NA,"2013-05-20","2013-06-30","2013-05-20","2013-06-26","2013-07-15",NA,NA,NA,NA,NA,NA,NA,NA,NA,NA,NA,5,"NA","2013-05-07",-13,75,"YEARS",">64","F","WHITE","White","NOT HISPANIC OR LATINO","Y","Xanomeline High Dose","Xan_Hi","Xanomeline High Dose","Xan_Hi","Xanomeline High Dose","Xanomeline High Dose",2013-05-20,2013-05-20,"H",2013-06-26,2013-06-26 23:59:59,"H","DISCONTINUED",2013-06-30,NA,2013-05-20,2013-06-30,38,NA,NA,NA,NA,NA,NA,"Best Confirmed Overall Response by Investigator","CBOR","Tumor Response","Investigator","RECIST 1.1",7,"MISSING","Y",NA,NA,NA,NA,NA,NA,NA,NA,NA,NA,NA,NA,NA
"CDISCPILOT01","01-701-1146","1146","701","USA",NA,"2013-05-20","2013-06-30","2013-05-20","2013-06-26","2013-07-15",NA,NA,NA,NA,NA,NA,NA,NA,NA,NA,NA,6,"NA","2013-05-07",-13,75,"YEARS",">64","F","WHITE","White","NOT HISPANIC OR LATINO","Y","Xanomeline High Dose","Xan_Hi","Xanomeline High Dose","Xan_Hi","Xanomeline High Dose","Xanomeline High Dose",2013-05-20,2013-05-20,"H",2013-06-26,2013-06-26 23:59:59,"H","DISCONTINUED",2013-06-30,NA,2013-05-20,2013-06-30,38,NA,NA,NA,NA,NA,NA,"Confirmed Clinical Benefit by Investigator","CCB","Tumor Response","Investigator","RECIST 1.1",0,"N","Y",NA,NA,NA,NA,NA,NA,NA,NA,NA,NA,NA,NA,NA
"CDISCPILOT01","01-701-1146","1146","701","USA",NA,"2013-05-20","2013-06-30","2013-05-20","2013-06-26","2013-07-15",NA,NA,NA,NA,NA,NA,NA,NA,NA,NA,NA,7,"NA","2013-05-07",-13,75,"YEARS",">64","F","WHITE","White","NOT HISPANIC OR LATINO","Y","Xanomeline High Dose","Xan_Hi","Xanomeline High Dose","Xan_Hi","Xanomeline High Dose","Xanomeline High Dose",2013-05-20,2013-05-20,"H",2013-06-26,2013-06-26 23:59:59,"H","DISCONTINUED",2013-06-30,NA,2013-05-20,2013-06-30,38,NA,NA,NA,NA,NA,NA,"Confirmed Response by Investigator","CRSP","Tumor Response","Investigator","RECIST 1.1",0,"N","Y",NA,NA,NA,NA,NA,NA,NA,NA,NA,NA,NA,NA,NA
"CDISCPILOT01","01-701-1146","1146","701","USA",NA,"2013-05-20","2013-06-30","2013-05-20","2013-06-26","2013-07-15",NA,NA,NA,NA,NA,NA,NA,NA,NA,NA,NA,8,"NA","2013-05-07",-13,75,"YEARS",">64","F","WHITE","White","NOT HISPANIC OR LATINO","Y","Xanomeline High Dose","Xan_Hi","Xanomeline High Dose","Xan_Hi","Xanomeline High Dose","Xanomeline High Dose",2013-05-20,2013-05-20,"H",2013-06-26,2013-06-26 23:59:59,"H","DISCONTINUED",2013-06-30,NA,2013-05-20,2013-06-30,38,NA,NA,NA,NA,NA,NA,"Death","DEATH","Reference Event",NA,NA,0,"N","Y",NA,NA,NA,NA,NA,NA,NA,NA,NA,NA,NA,NA,NA
"CDISCPILOT01","01-701-1146","1146","701","USA",NA,"2013-05-20","2013-06-30","2013-05-20","2013-06-26","2013-07-15",NA,NA,NA,NA,NA,NA,NA,NA,NA,NA,NA,9,"NA","2013-05-07",-13,75,"YEARS",">64","F","WHITE","White","NOT HISPANIC OR LATINO","Y","Xanomeline High Dose","Xan_Hi","Xanomeline High Dose","Xan_Hi","Xanomeline High Dose","Xanomeline High Dose",2013-05-20,2013-05-20,"H",2013-06-26,2013-06-26 23:59:59,"H","DISCONTINUED",2013-06-30,NA,2013-05-20,2013-06-30,38,NA,NA,NA,NA,NA,NA,"Last Disease Assessment by Investigator","LSTA","Tumor Response","Investigator","RECIST 1.1",NA,NA,"Y",NA,NA,NA,NA,NA,NA,NA,NA,NA,NA,NA,NA,NA
"CDISCPILOT01","01-701-1146","1146","701","USA",NA,"2013-05-20","2013-06-30","2013-05-20","2013-06-26","2013-07-15",NA,NA,NA,NA,NA,NA,NA,NA,NA,NA,NA,10,"NA","2013-05-07",-13,75,"YEARS",">64","F","WHITE","White","NOT HISPANIC OR LATINO","Y","Xanomeline High Dose","Xan_Hi","Xanomeline High Dose","Xan_Hi","Xanomeline High Dose","Xanomeline High Dose",2013-05-20,2013-05-20,"H",2013-06-26,2013-06-26 23:59:59,"H","DISCONTINUED",2013-06-30,NA,NA,2013-06-30,38,NA,NA,NA,NA,NA,NA,"Measurable Disease at Baseline by Investigator","MDIS",NA,"Investigator","RECIST 1.1",0,"N","Y",NA,NA,NA,NA,NA,NA,NA,NA,NA,NA,NA,NA,NA
"CDISCPILOT01","01-701-1146","1146","701","USA",NA,"2013-05-20","2013-06-30","2013-05-20","2013-06-26","2013-07-15",NA,NA,NA,NA,NA,NA,NA,NA,NA,NA,NA,11,"NA","2013-05-07",-13,75,"YEARS",">64","F","WHITE","White","NOT HISPANIC OR LATINO","Y","Xanomeline High Dose","Xan_Hi","Xanomeline High Dose","Xan_Hi","Xanomeline High Dose","Xanomeline High Dose",2013-05-20,2013-05-20,"H",2013-06-26,2013-06-26 23:59:59,"H","DISCONTINUED",2013-06-30,NA,2013-05-20,2013-06-30,38,NA,NA,NA,NA,NA,NA,"Disease Progression by Investigator","PD","Tumor Response","Investigator","RECIST 1.1",0,"N","Y",NA,NA,NA,NA,NA,NA,NA,NA,NA,NA,NA,NA,NA
"CDISCPILOT01","01-701-1146","1146","701","USA",NA,"2013-05-20","2013-06-30","2013-05-20","2013-06-26","2013-07-15",NA,NA,NA,NA,NA,NA,NA,NA,NA,NA,NA,12,"NA","2013-05-07",-13,75,"YEARS",">64","F","WHITE","White","NOT HISPANIC OR LATINO","Y","Xanomeline High Dose","Xan_Hi","Xanomeline High Dose","Xan_Hi","Xanomeline High Dose","Xanomeline High Dose",2013-05-20,2013-05-20,"H",2013-06-26,2013-06-26 23:59:59,"H","DISCONTINUED",2013-06-30,NA,2013-05-20,2013-06-30,38,NA,NA,NA,NA,NA,NA,"Response by Investigator (confirmation not required)","RSP","Tumor Response","Investigator","RECIST 1.1",0,"N","Y",NA,NA,NA,NA,NA,NA,NA,NA,NA,NA,NA,NA,NA
"CDISCPILOT01","01-701-1148","1148","701","USA",NA,"2013-08-23","2014-02-20","2013-08-23","2014-02-20","2014-02-20T15:07",NA,NA,NA,NA,NA,NA,NA,NA,NA,NA,NA,1,"NA","2013-08-14",-9,57,"YEARS","18-64","M","WHITE","White","NOT HISPANIC OR LATINO","Y","Xanomeline High Dose","Xan_Hi","Xanomeline High Dose","Xan_Hi","Xanomeline High Dose","Xanomeline High Dose",2013-08-23,2013-08-23,"H",2014-02-20,2014-02-20 23:59:59,"H","COMPLETED",2014-02-20,NA,2013-08-23,2014-02-20,182,NA,NA,NA,NA,NA,NA,"Best Overall Response of CR/PR by Investigator (confirmation not required)","BCP","Tumor Response","Investigator","RECIST 1.1",0,"N","Y",NA,NA,NA,NA,NA,NA,NA,NA,NA,NA,NA,NA,NA
"CDISCPILOT01","01-701-1148","1148","701","USA",NA,"2013-08-23","2014-02-20","2013-08-23","2014-02-20","2014-02-20T15:07",NA,NA,NA,NA,NA,NA,NA,NA,NA,NA,NA,2,"NA","2013-08-14",-9,57,"YEARS","18-64","M","WHITE","White","NOT HISPANIC OR LATINO","Y","Xanomeline High Dose","Xan_Hi","Xanomeline High Dose","Xan_Hi","Xanomeline High Dose","Xanomeline High Dose",2013-08-23,2013-08-23,"H",2014-02-20,2014-02-20 23:59:59,"H","COMPLETED",2014-02-20,NA,2013-08-23,2014-02-20,182,NA,NA,NA,NA,NA,NA,"Best Overall Response by Investigator (confirmation not required)","BOR","Tumor Response","Investigator","RECIST 1.1",7,"MISSING","Y",NA,NA,NA,NA,NA,NA,NA,NA,NA,NA,NA,NA,NA
"CDISCPILOT01","01-701-1148","1148","701","USA",NA,"2013-08-23","2014-02-20","2013-08-23","2014-02-20","2014-02-20T15:07",NA,NA,NA,NA,NA,NA,NA,NA,NA,NA,NA,3,"NA","2013-08-14",-9,57,"YEARS","18-64","M","WHITE","White","NOT HISPANIC OR LATINO","Y","Xanomeline High Dose","Xan_Hi","Xanomeline High Dose","Xan_Hi","Xanomeline High Dose","Xanomeline High Dose",2013-08-23,2013-08-23,"H",2014-02-20,2014-02-20 23:59:59,"H","COMPLETED",2014-02-20,NA,2013-08-23,2014-02-20,182,NA,NA,NA,NA,NA,NA,"Clinical Benefit by Investigator (confirmation for response not required)","CB","Tumor Response","Investigator","RECIST 1.1",0,"N","Y",NA,NA,NA,NA,NA,NA,NA,NA,NA,NA,NA,NA,NA
"CDISCPILOT01","01-701-1148","1148","701","USA",NA,"2013-08-23","2014-02-20","2013-08-23","2014-02-20","2014-02-20T15:07",NA,NA,NA,NA,NA,NA,NA,NA,NA,NA,NA,4,"NA","2013-08-14",-9,57,"YEARS","18-64","M","WHITE","White","NOT HISPANIC OR LATINO","Y","Xanomeline High Dose","Xan_Hi","Xanomeline High Dose","Xan_Hi","Xanomeline High Dose","Xanomeline High Dose",2013-08-23,2013-08-23,"H",2014-02-20,2014-02-20 23:59:59,"H","COMPLETED",2014-02-20,NA,2013-08-23,2014-02-20,182,NA,NA,NA,NA,NA,NA,"Best Confirmed Overall Response of CR/PR by Investigator","CBCP","Tumor Response","Investigator","RECIST 1.1",0,"N","Y",NA,NA,NA,NA,NA,NA,NA,NA,NA,NA,NA,NA,NA
"CDISCPILOT01","01-701-1148","1148","701","USA",NA,"2013-08-23","2014-02-20","2013-08-23","2014-02-20","2014-02-20T15:07",NA,NA,NA,NA,NA,NA,NA,NA,NA,NA,NA,5,"NA","2013-08-14",-9,57,"YEARS","18-64","M","WHITE","White","NOT HISPANIC OR LATINO","Y","Xanomeline High Dose","Xan_Hi","Xanomeline High Dose","Xan_Hi","Xanomeline High Dose","Xanomeline High Dose",2013-08-23,2013-08-23,"H",2014-02-20,2014-02-20 23:59:59,"H","COMPLETED",2014-02-20,NA,2013-08-23,2014-02-20,182,NA,NA,NA,NA,NA,NA,"Best Confirmed Overall Response by Investigator","CBOR","Tumor Response","Investigator","RECIST 1.1",7,"MISSING","Y",NA,NA,NA,NA,NA,NA,NA,NA,NA,NA,NA,NA,NA
"CDISCPILOT01","01-701-1148","1148","701","USA",NA,"2013-08-23","2014-02-20","2013-08-23","2014-02-20","2014-02-20T15:07",NA,NA,NA,NA,NA,NA,NA,NA,NA,NA,NA,6,"NA","2013-08-14",-9,57,"YEARS","18-64","M","WHITE","White","NOT HISPANIC OR LATINO","Y","Xanomeline High Dose","Xan_Hi","Xanomeline High Dose","Xan_Hi","Xanomeline High Dose","Xanomeline High Dose",2013-08-23,2013-08-23,"H",2014-02-20,2014-02-20 23:59:59,"H","COMPLETED",2014-02-20,NA,2013-08-23,2014-02-20,182,NA,NA,NA,NA,NA,NA,"Confirmed Clinical Benefit by Investigator","CCB","Tumor Response","Investigator","RECIST 1.1",0,"N","Y",NA,NA,NA,NA,NA,NA,NA,NA,NA,NA,NA,NA,NA
"CDISCPILOT01","01-701-1148","1148","701","USA",NA,"2013-08-23","2014-02-20","2013-08-23","2014-02-20","2014-02-20T15:07",NA,NA,NA,NA,NA,NA,NA,NA,NA,NA,NA,7,"NA","2013-08-14",-9,57,"YEARS","18-64","M","WHITE","White","NOT HISPANIC OR LATINO","Y","Xanomeline High Dose","Xan_Hi","Xanomeline High Dose","Xan_Hi","Xanomeline High Dose","Xanomeline High Dose",2013-08-23,2013-08-23,"H",2014-02-20,2014-02-20 23:59:59,"H","COMPLETED",2014-02-20,NA,2013-08-23,2014-02-20,182,NA,NA,NA,NA,NA,NA,"Confirmed Response by Investigator","CRSP","Tumor Response","Investigator","RECIST 1.1",0,"N","Y",NA,NA,NA,NA,NA,NA,NA,NA,NA,NA,NA,NA,NA
"CDISCPILOT01","01-701-1148","1148","701","USA",NA,"2013-08-23","2014-02-20","2013-08-23","2014-02-20","2014-02-20T15:07",NA,NA,NA,NA,NA,NA,NA,NA,NA,NA,NA,8,"NA","2013-08-14",-9,57,"YEARS","18-64","M","WHITE","White","NOT HISPANIC OR LATINO","Y","Xanomeline High Dose","Xan_Hi","Xanomeline High Dose","Xan_Hi","Xanomeline High Dose","Xanomeline High Dose",2013-08-23,2013-08-23,"H",2014-02-20,2014-02-20 23:59:59,"H","COMPLETED",2014-02-20,NA,2013-08-23,2014-02-20,182,NA,NA,NA,NA,NA,NA,"Death","DEATH","Reference Event",NA,NA,0,"N","Y",NA,NA,NA,NA,NA,NA,NA,NA,NA,NA,NA,NA,NA
"CDISCPILOT01","01-701-1148","1148","701","USA",NA,"2013-08-23","2014-02-20","2013-08-23","2014-02-20","2014-02-20T15:07",NA,NA,NA,NA,NA,NA,NA,NA,NA,NA,NA,9,"NA","2013-08-14",-9,57,"YEARS","18-64","M","WHITE","White","NOT HISPANIC OR LATINO","Y","Xanomeline High Dose","Xan_Hi","Xanomeline High Dose","Xan_Hi","Xanomeline High Dose","Xanomeline High Dose",2013-08-23,2013-08-23,"H",2014-02-20,2014-02-20 23:59:59,"H","COMPLETED",2014-02-20,NA,2013-08-23,2014-02-20,182,NA,NA,NA,NA,NA,NA,"Last Disease Assessment by Investigator","LSTA","Tumor Response","Investigator","RECIST 1.1",NA,NA,"Y",NA,NA,NA,NA,NA,NA,NA,NA,NA,NA,NA,NA,NA
"CDISCPILOT01","01-701-1148","1148","701","USA",NA,"2013-08-23","2014-02-20","2013-08-23","2014-02-20","2014-02-20T15:07",NA,NA,NA,NA,NA,NA,NA,NA,NA,NA,NA,10,"NA","2013-08-14",-9,57,"YEARS","18-64","M","WHITE","White","NOT HISPANIC OR LATINO","Y","Xanomeline High Dose","Xan_Hi","Xanomeline High Dose","Xan_Hi","Xanomeline High Dose","Xanomeline High Dose",2013-08-23,2013-08-23,"H",2014-02-20,2014-02-20 23:59:59,"H","COMPLETED",2014-02-20,NA,NA,2014-02-20,182,NA,NA,NA,NA,NA,NA,"Measurable Disease at Baseline by Investigator","MDIS",NA,"Investigator","RECIST 1.1",0,"N","Y",NA,NA,NA,NA,NA,NA,NA,NA,NA,NA,NA,NA,NA
"CDISCPILOT01","01-701-1148","1148","701","USA",NA,"2013-08-23","2014-02-20","2013-08-23","2014-02-20","2014-02-20T15:07",NA,NA,NA,NA,NA,NA,NA,NA,NA,NA,NA,11,"NA","2013-08-14",-9,57,"YEARS","18-64","M","WHITE","White","NOT HISPANIC OR LATINO","Y","Xanomeline High Dose","Xan_Hi","Xanomeline High Dose","Xan_Hi","Xanomeline High Dose","Xanomeline High Dose",2013-08-23,2013-08-23,"H",2014-02-20,2014-02-20 23:59:59,"H","COMPLETED",2014-02-20,NA,2013-08-23,2014-02-20,182,NA,NA,NA,NA,NA,NA,"Disease Progression by Investigator","PD","Tumor Response","Investigator","RECIST 1.1",0,"N","Y",NA,NA,NA,NA,NA,NA,NA,NA,NA,NA,NA,NA,NA
"CDISCPILOT01","01-701-1148","1148","701","USA",NA,"2013-08-23","2014-02-20","2013-08-23","2014-02-20","2014-02-20T15:07",NA,NA,NA,NA,NA,NA,NA,NA,NA,NA,NA,12,"NA","2013-08-14",-9,57,"YEARS","18-64","M","WHITE","White","NOT HISPANIC OR LATINO","Y","Xanomeline High Dose","Xan_Hi","Xanomeline High Dose","Xan_Hi","Xanomeline High Dose","Xanomeline High Dose",2013-08-23,2013-08-23,"H",2014-02-20,2014-02-20 23:59:59,"H","COMPLETED",2014-02-20,NA,2013-08-23,2014-02-20,182,NA,NA,NA,NA,NA,NA,"Response by Investigator (confirmation not required)","RSP","Tumor Response","Investigator","RECIST 1.1",0,"N","Y",NA,NA,NA,NA,NA,NA,NA,NA,NA,NA,NA,NA,NA
"CDISCPILOT01","01-701-1153","1153","701","USA",NA,"2013-09-23","2014-04-01","2013-09-23","2014-03-16","2014-04-01T14:25",NA,NA,NA,NA,NA,NA,NA,NA,NA,NA,NA,1,"NA","2013-09-06",-17,79,"YEARS",">64","F","WHITE","White","NOT HISPANIC OR LATINO","Y","Placebo","Pbo","Placebo","Pbo","Placebo","Placebo",2013-09-23,2013-09-23,"H",2014-03-16,2014-03-16 23:59:59,"H","COMPLETED",2014-04-01,NA,2013-09-23,2014-04-01,175,NA,NA,NA,NA,NA,NA,"Best Overall Response of CR/PR by Investigator (confirmation not required)","BCP","Tumor Response","Investigator","RECIST 1.1",0,"N","Y",NA,NA,NA,NA,NA,NA,NA,NA,NA,NA,NA,NA,NA
"CDISCPILOT01","01-701-1153","1153","701","USA",NA,"2013-09-23","2014-04-01","2013-09-23","2014-03-16","2014-04-01T14:25",NA,NA,NA,NA,NA,NA,NA,NA,NA,NA,NA,2,"NA","2013-09-06",-17,79,"YEARS",">64","F","WHITE","White","NOT HISPANIC OR LATINO","Y","Placebo","Pbo","Placebo","Pbo","Placebo","Placebo",2013-09-23,2013-09-23,"H",2014-03-16,2014-03-16 23:59:59,"H","COMPLETED",2014-04-01,NA,2013-09-23,2014-04-01,175,NA,NA,NA,NA,NA,NA,"Best Overall Response by Investigator (confirmation not required)","BOR","Tumor Response","Investigator","RECIST 1.1",7,"MISSING","Y",NA,NA,NA,NA,NA,NA,NA,NA,NA,NA,NA,NA,NA
"CDISCPILOT01","01-701-1153","1153","701","USA",NA,"2013-09-23","2014-04-01","2013-09-23","2014-03-16","2014-04-01T14:25",NA,NA,NA,NA,NA,NA,NA,NA,NA,NA,NA,3,"NA","2013-09-06",-17,79,"YEARS",">64","F","WHITE","White","NOT HISPANIC OR LATINO","Y","Placebo","Pbo","Placebo","Pbo","Placebo","Placebo",2013-09-23,2013-09-23,"H",2014-03-16,2014-03-16 23:59:59,"H","COMPLETED",2014-04-01,NA,2013-09-23,2014-04-01,175,NA,NA,NA,NA,NA,NA,"Clinical Benefit by Investigator (confirmation for response not required)","CB","Tumor Response","Investigator","RECIST 1.1",0,"N","Y",NA,NA,NA,NA,NA,NA,NA,NA,NA,NA,NA,NA,NA
"CDISCPILOT01","01-701-1153","1153","701","USA",NA,"2013-09-23","2014-04-01","2013-09-23","2014-03-16","2014-04-01T14:25",NA,NA,NA,NA,NA,NA,NA,NA,NA,NA,NA,4,"NA","2013-09-06",-17,79,"YEARS",">64","F","WHITE","White","NOT HISPANIC OR LATINO","Y","Placebo","Pbo","Placebo","Pbo","Placebo","Placebo",2013-09-23,2013-09-23,"H",2014-03-16,2014-03-16 23:59:59,"H","COMPLETED",2014-04-01,NA,2013-09-23,2014-04-01,175,NA,NA,NA,NA,NA,NA,"Best Confirmed Overall Response of CR/PR by Investigator","CBCP","Tumor Response","Investigator","RECIST 1.1",0,"N","Y",NA,NA,NA,NA,NA,NA,NA,NA,NA,NA,NA,NA,NA
"CDISCPILOT01","01-701-1153","1153","701","USA",NA,"2013-09-23","2014-04-01","2013-09-23","2014-03-16","2014-04-01T14:25",NA,NA,NA,NA,NA,NA,NA,NA,NA,NA,NA,5,"NA","2013-09-06",-17,79,"YEARS",">64","F","WHITE","White","NOT HISPANIC OR LATINO","Y","Placebo","Pbo","Placebo","Pbo","Placebo","Placebo",2013-09-23,2013-09-23,"H",2014-03-16,2014-03-16 23:59:59,"H","COMPLETED",2014-04-01,NA,2013-09-23,2014-04-01,175,NA,NA,NA,NA,NA,NA,"Best Confirmed Overall Response by Investigator","CBOR","Tumor Response","Investigator","RECIST 1.1",7,"MISSING","Y",NA,NA,NA,NA,NA,NA,NA,NA,NA,NA,NA,NA,NA
"CDISCPILOT01","01-701-1153","1153","701","USA",NA,"2013-09-23","2014-04-01","2013-09-23","2014-03-16","2014-04-01T14:25",NA,NA,NA,NA,NA,NA,NA,NA,NA,NA,NA,6,"NA","2013-09-06",-17,79,"YEARS",">64","F","WHITE","White","NOT HISPANIC OR LATINO","Y","Placebo","Pbo","Placebo","Pbo","Placebo","Placebo",2013-09-23,2013-09-23,"H",2014-03-16,2014-03-16 23:59:59,"H","COMPLETED",2014-04-01,NA,2013-09-23,2014-04-01,175,NA,NA,NA,NA,NA,NA,"Confirmed Clinical Benefit by Investigator","CCB","Tumor Response","Investigator","RECIST 1.1",0,"N","Y",NA,NA,NA,NA,NA,NA,NA,NA,NA,NA,NA,NA,NA
"CDISCPILOT01","01-701-1153","1153","701","USA",NA,"2013-09-23","2014-04-01","2013-09-23","2014-03-16","2014-04-01T14:25",NA,NA,NA,NA,NA,NA,NA,NA,NA,NA,NA,7,"NA","2013-09-06",-17,79,"YEARS",">64","F","WHITE","White","NOT HISPANIC OR LATINO","Y","Placebo","Pbo","Placebo","Pbo","Placebo","Placebo",2013-09-23,2013-09-23,"H",2014-03-16,2014-03-16 23:59:59,"H","COMPLETED",2014-04-01,NA,2013-09-23,2014-04-01,175,NA,NA,NA,NA,NA,NA,"Confirmed Response by Investigator","CRSP","Tumor Response","Investigator","RECIST 1.1",0,"N","Y",NA,NA,NA,NA,NA,NA,NA,NA,NA,NA,NA,NA,NA
"CDISCPILOT01","01-701-1153","1153","701","USA",NA,"2013-09-23","2014-04-01","2013-09-23","2014-03-16","2014-04-01T14:25",NA,NA,NA,NA,NA,NA,NA,NA,NA,NA,NA,8,"NA","2013-09-06",-17,79,"YEARS",">64","F","WHITE","White","NOT HISPANIC OR LATINO","Y","Placebo","Pbo","Placebo","Pbo","Placebo","Placebo",2013-09-23,2013-09-23,"H",2014-03-16,2014-03-16 23:59:59,"H","COMPLETED",2014-04-01,NA,2013-09-23,2014-04-01,175,NA,NA,NA,NA,NA,NA,"Death","DEATH","Reference Event",NA,NA,0,"N","Y",NA,NA,NA,NA,NA,NA,NA,NA,NA,NA,NA,NA,NA
"CDISCPILOT01","01-701-1153","1153","701","USA",NA,"2013-09-23","2014-04-01","2013-09-23","2014-03-16","2014-04-01T14:25",NA,NA,NA,NA,NA,NA,NA,NA,NA,NA,NA,9,"NA","2013-09-06",-17,79,"YEARS",">64","F","WHITE","White","NOT HISPANIC OR LATINO","Y","Placebo","Pbo","Placebo","Pbo","Placebo","Placebo",2013-09-23,2013-09-23,"H",2014-03-16,2014-03-16 23:59:59,"H","COMPLETED",2014-04-01,NA,2013-09-23,2014-04-01,175,NA,NA,NA,NA,NA,NA,"Last Disease Assessment by Investigator","LSTA","Tumor Response","Investigator","RECIST 1.1",NA,NA,"Y",NA,NA,NA,NA,NA,NA,NA,NA,NA,NA,NA,NA,NA
"CDISCPILOT01","01-701-1153","1153","701","USA",NA,"2013-09-23","2014-04-01","2013-09-23","2014-03-16","2014-04-01T14:25",NA,NA,NA,NA,NA,NA,NA,NA,NA,NA,NA,10,"NA","2013-09-06",-17,79,"YEARS",">64","F","WHITE","White","NOT HISPANIC OR LATINO","Y","Placebo","Pbo","Placebo","Pbo","Placebo","Placebo",2013-09-23,2013-09-23,"H",2014-03-16,2014-03-16 23:59:59,"H","COMPLETED",2014-04-01,NA,NA,2014-04-01,175,NA,NA,NA,NA,NA,NA,"Measurable Disease at Baseline by Investigator","MDIS",NA,"Investigator","RECIST 1.1",0,"N","Y",NA,NA,NA,NA,NA,NA,NA,NA,NA,NA,NA,NA,NA
"CDISCPILOT01","01-701-1153","1153","701","USA",NA,"2013-09-23","2014-04-01","2013-09-23","2014-03-16","2014-04-01T14:25",NA,NA,NA,NA,NA,NA,NA,NA,NA,NA,NA,11,"NA","2013-09-06",-17,79,"YEARS",">64","F","WHITE","White","NOT HISPANIC OR LATINO","Y","Placebo","Pbo","Placebo","Pbo","Placebo","Placebo",2013-09-23,2013-09-23,"H",2014-03-16,2014-03-16 23:59:59,"H","COMPLETED",2014-04-01,NA,2013-09-23,2014-04-01,175,NA,NA,NA,NA,NA,NA,"Disease Progression by Investigator","PD","Tumor Response","Investigator","RECIST 1.1",0,"N","Y",NA,NA,NA,NA,NA,NA,NA,NA,NA,NA,NA,NA,NA
"CDISCPILOT01","01-701-1153","1153","701","USA",NA,"2013-09-23","2014-04-01","2013-09-23","2014-03-16","2014-04-01T14:25",NA,NA,NA,NA,NA,NA,NA,NA,NA,NA,NA,12,"NA","2013-09-06",-17,79,"YEARS",">64","F","WHITE","White","NOT HISPANIC OR LATINO","Y","Placebo","Pbo","Placebo","Pbo","Placebo","Placebo",2013-09-23,2013-09-23,"H",2014-03-16,2014-03-16 23:59:59,"H","COMPLETED",2014-04-01,NA,2013-09-23,2014-04-01,175,NA,NA,NA,NA,NA,NA,"Response by Investigator (confirmation not required)","RSP","Tumor Response","Investigator","RECIST 1.1",0,"N","Y",NA,NA,NA,NA,NA,NA,NA,NA,NA,NA,NA,NA,NA
"CDISCPILOT01","01-701-1162","1162","701","USA",NA,NA,NA,NA,NA,"2013-04-18",2013-04-18,NA,NA,NA,NA,NA,NA,NA,NA,NA,NA,1,"NA","2013-04-18",NA,82,"YEARS",">64","F","WHITE","White","NOT HISPANIC OR LATINO","N","Screen Failure","Scrnfail","Screen Failure","Scrnfail","Screen Failure","Screen Failure",NA,NA,NA,NA,NA,NA,NA,NA,NA,NA,NA,NA,NA,NA,NA,NA,NA,NA,"Best Overall Response of CR/PR by Investigator (confirmation not required)","BCP","Tumor Response","Investigator","RECIST 1.1",0,"N","Y",NA,NA,NA,NA,NA,NA,NA,NA,NA,NA,NA,NA,NA
"CDISCPILOT01","01-701-1162","1162","701","USA",NA,NA,NA,NA,NA,"2013-04-18",2013-04-18,NA,NA,NA,NA,NA,NA,NA,NA,NA,NA,2,"NA","2013-04-18",NA,82,"YEARS",">64","F","WHITE","White","NOT HISPANIC OR LATINO","N","Screen Failure","Scrnfail","Screen Failure","Scrnfail","Screen Failure","Screen Failure",NA,NA,NA,NA,NA,NA,NA,NA,NA,NA,NA,NA,NA,NA,NA,NA,NA,NA,"Best Overall Response by Investigator (confirmation not required)","BOR","Tumor Response","Investigator","RECIST 1.1",7,"MISSING","Y",NA,NA,NA,NA,NA,NA,NA,NA,NA,NA,NA,NA,NA
"CDISCPILOT01","01-701-1162","1162","701","USA",NA,NA,NA,NA,NA,"2013-04-18",2013-04-18,NA,NA,NA,NA,NA,NA,NA,NA,NA,NA,3,"NA","2013-04-18",NA,82,"YEARS",">64","F","WHITE","White","NOT HISPANIC OR LATINO","N","Screen Failure","Scrnfail","Screen Failure","Scrnfail","Screen Failure","Screen Failure",NA,NA,NA,NA,NA,NA,NA,NA,NA,NA,NA,NA,NA,NA,NA,NA,NA,NA,"Clinical Benefit by Investigator (confirmation for response not required)","CB","Tumor Response","Investigator","RECIST 1.1",0,"N","Y",NA,NA,NA,NA,NA,NA,NA,NA,NA,NA,NA,NA,NA
"CDISCPILOT01","01-701-1162","1162","701","USA",NA,NA,NA,NA,NA,"2013-04-18",2013-04-18,NA,NA,NA,NA,NA,NA,NA,NA,NA,NA,4,"NA","2013-04-18",NA,82,"YEARS",">64","F","WHITE","White","NOT HISPANIC OR LATINO","N","Screen Failure","Scrnfail","Screen Failure","Scrnfail","Screen Failure","Screen Failure",NA,NA,NA,NA,NA,NA,NA,NA,NA,NA,NA,NA,NA,NA,NA,NA,NA,NA,"Best Confirmed Overall Response of CR/PR by Investigator","CBCP","Tumor Response","Investigator","RECIST 1.1",0,"N","Y",NA,NA,NA,NA,NA,NA,NA,NA,NA,NA,NA,NA,NA
"CDISCPILOT01","01-701-1162","1162","701","USA",NA,NA,NA,NA,NA,"2013-04-18",2013-04-18,NA,NA,NA,NA,NA,NA,NA,NA,NA,NA,5,"NA","2013-04-18",NA,82,"YEARS",">64","F","WHITE","White","NOT HISPANIC OR LATINO","N","Screen Failure","Scrnfail","Screen Failure","Scrnfail","Screen Failure","Screen Failure",NA,NA,NA,NA,NA,NA,NA,NA,NA,NA,NA,NA,NA,NA,NA,NA,NA,NA,"Best Confirmed Overall Response by Investigator","CBOR","Tumor Response","Investigator","RECIST 1.1",7,"MISSING","Y",NA,NA,NA,NA,NA,NA,NA,NA,NA,NA,NA,NA,NA
"CDISCPILOT01","01-701-1162","1162","701","USA",NA,NA,NA,NA,NA,"2013-04-18",2013-04-18,NA,NA,NA,NA,NA,NA,NA,NA,NA,NA,6,"NA","2013-04-18",NA,82,"YEARS",">64","F","WHITE","White","NOT HISPANIC OR LATINO","N","Screen Failure","Scrnfail","Screen Failure","Scrnfail","Screen Failure","Screen Failure",NA,NA,NA,NA,NA,NA,NA,NA,NA,NA,NA,NA,NA,NA,NA,NA,NA,NA,"Confirmed Clinical Benefit by Investigator","CCB","Tumor Response","Investigator","RECIST 1.1",0,"N","Y",NA,NA,NA,NA,NA,NA,NA,NA,NA,NA,NA,NA,NA
"CDISCPILOT01","01-701-1162","1162","701","USA",NA,NA,NA,NA,NA,"2013-04-18",2013-04-18,NA,NA,NA,NA,NA,NA,NA,NA,NA,NA,7,"NA","2013-04-18",NA,82,"YEARS",">64","F","WHITE","White","NOT HISPANIC OR LATINO","N","Screen Failure","Scrnfail","Screen Failure","Scrnfail","Screen Failure","Screen Failure",NA,NA,NA,NA,NA,NA,NA,NA,NA,NA,NA,NA,NA,NA,NA,NA,NA,NA,"Confirmed Response by Investigator","CRSP","Tumor Response","Investigator","RECIST 1.1",0,"N","Y",NA,NA,NA,NA,NA,NA,NA,NA,NA,NA,NA,NA,NA
"CDISCPILOT01","01-701-1162","1162","701","USA",NA,NA,NA,NA,NA,"2013-04-18",2013-04-18,NA,NA,NA,NA,NA,NA,NA,NA,NA,NA,8,"NA","2013-04-18",NA,82,"YEARS",">64","F","WHITE","White","NOT HISPANIC OR LATINO","N","Screen Failure","Scrnfail","Screen Failure","Scrnfail","Screen Failure","Screen Failure",NA,NA,NA,NA,NA,NA,NA,NA,NA,NA,NA,NA,NA,NA,NA,NA,NA,NA,"Death","DEATH","Reference Event",NA,NA,0,"N","Y",NA,NA,NA,NA,NA,NA,NA,NA,NA,NA,NA,NA,NA
"CDISCPILOT01","01-701-1162","1162","701","USA",NA,NA,NA,NA,NA,"2013-04-18",2013-04-18,NA,NA,NA,NA,NA,NA,NA,NA,NA,NA,9,"NA","2013-04-18",NA,82,"YEARS",">64","F","WHITE","White","NOT HISPANIC OR LATINO","N","Screen Failure","Scrnfail","Screen Failure","Scrnfail","Screen Failure","Screen Failure",NA,NA,NA,NA,NA,NA,NA,NA,NA,NA,NA,NA,NA,NA,NA,NA,NA,NA,"Last Disease Assessment by Investigator","LSTA","Tumor Response","Investigator","RECIST 1.1",NA,NA,"Y",NA,NA,NA,NA,NA,NA,NA,NA,NA,NA,NA,NA,NA
"CDISCPILOT01","01-701-1162","1162","701","USA",NA,NA,NA,NA,NA,"2013-04-18",2013-04-18,NA,NA,NA,NA,NA,NA,NA,NA,NA,NA,10,"NA","2013-04-18",NA,82,"YEARS",">64","F","WHITE","White","NOT HISPANIC OR LATINO","N","Screen Failure","Scrnfail","Screen Failure","Scrnfail","Screen Failure","Screen Failure",NA,NA,NA,NA,NA,NA,NA,NA,NA,NA,NA,NA,NA,NA,NA,NA,NA,NA,"Measurable Disease at Baseline by Investigator","MDIS",NA,"Investigator","RECIST 1.1",0,"N","Y",NA,NA,NA,NA,NA,NA,NA,NA,NA,NA,NA,NA,NA
"CDISCPILOT01","01-701-1162","1162","701","USA",NA,NA,NA,NA,NA,"2013-04-18",2013-04-18,NA,NA,NA,NA,NA,NA,NA,NA,NA,NA,11,"NA","2013-04-18",NA,82,"YEARS",">64","F","WHITE","White","NOT HISPANIC OR LATINO","N","Screen Failure","Scrnfail","Screen Failure","Scrnfail","Screen Failure","Screen Failure",NA,NA,NA,NA,NA,NA,NA,NA,NA,NA,NA,NA,NA,NA,NA,NA,NA,NA,"Disease Progression by Investigator","PD","Tumor Response","Investigator","RECIST 1.1",0,"N","Y",NA,NA,NA,NA,NA,NA,NA,NA,NA,NA,NA,NA,NA
"CDISCPILOT01","01-701-1162","1162","701","USA",NA,NA,NA,NA,NA,"2013-04-18",2013-04-18,NA,NA,NA,NA,NA,NA,NA,NA,NA,NA,12,"NA","2013-04-18",NA,82,"YEARS",">64","F","WHITE","White","NOT HISPANIC OR LATINO","N","Screen Failure","Scrnfail","Screen Failure","Scrnfail","Screen Failure","Screen Failure",NA,NA,NA,NA,NA,NA,NA,NA,NA,NA,NA,NA,NA,NA,NA,NA,NA,NA,"Response by Investigator (confirmation not required)","RSP","Tumor Response","Investigator","RECIST 1.1",0,"N","Y",NA,NA,NA,NA,NA,NA,NA,NA,NA,NA,NA,NA,NA
"CDISCPILOT01","01-701-1176","1176","701","USA",NA,NA,NA,NA,NA,"2012-09-30",2012-09-30,NA,NA,NA,NA,NA,NA,NA,NA,NA,NA,1,"NA","2012-09-30",NA,62,"YEARS","18-64","F","AMERICAN INDIAN OR ALASKA NATIVE","Non-white","NOT HISPANIC OR LATINO","N","Screen Failure","Scrnfail","Screen Failure","Scrnfail","Screen Failure","Screen Failure",NA,NA,NA,NA,NA,NA,NA,NA,NA,NA,NA,NA,NA,NA,NA,NA,NA,NA,"Best Overall Response of CR/PR by Investigator (confirmation not required)","BCP","Tumor Response","Investigator","RECIST 1.1",0,"N","Y",NA,NA,NA,NA,NA,NA,NA,NA,NA,NA,NA,NA,NA
"CDISCPILOT01","01-701-1176","1176","701","USA",NA,NA,NA,NA,NA,"2012-09-30",2012-09-30,NA,NA,NA,NA,NA,NA,NA,NA,NA,NA,2,"NA","2012-09-30",NA,62,"YEARS","18-64","F","AMERICAN INDIAN OR ALASKA NATIVE","Non-white","NOT HISPANIC OR LATINO","N","Screen Failure","Scrnfail","Screen Failure","Scrnfail","Screen Failure","Screen Failure",NA,NA,NA,NA,NA,NA,NA,NA,NA,NA,NA,NA,NA,NA,NA,NA,NA,NA,"Best Overall Response by Investigator (confirmation not required)","BOR","Tumor Response","Investigator","RECIST 1.1",7,"MISSING","Y",NA,NA,NA,NA,NA,NA,NA,NA,NA,NA,NA,NA,NA
"CDISCPILOT01","01-701-1176","1176","701","USA",NA,NA,NA,NA,NA,"2012-09-30",2012-09-30,NA,NA,NA,NA,NA,NA,NA,NA,NA,NA,3,"NA","2012-09-30",NA,62,"YEARS","18-64","F","AMERICAN INDIAN OR ALASKA NATIVE","Non-white","NOT HISPANIC OR LATINO","N","Screen Failure","Scrnfail","Screen Failure","Scrnfail","Screen Failure","Screen Failure",NA,NA,NA,NA,NA,NA,NA,NA,NA,NA,NA,NA,NA,NA,NA,NA,NA,NA,"Clinical Benefit by Investigator (confirmation for response not required)","CB","Tumor Response","Investigator","RECIST 1.1",0,"N","Y",NA,NA,NA,NA,NA,NA,NA,NA,NA,NA,NA,NA,NA
"CDISCPILOT01","01-701-1176","1176","701","USA",NA,NA,NA,NA,NA,"2012-09-30",2012-09-30,NA,NA,NA,NA,NA,NA,NA,NA,NA,NA,4,"NA","2012-09-30",NA,62,"YEARS","18-64","F","AMERICAN INDIAN OR ALASKA NATIVE","Non-white","NOT HISPANIC OR LATINO","N","Screen Failure","Scrnfail","Screen Failure","Scrnfail","Screen Failure","Screen Failure",NA,NA,NA,NA,NA,NA,NA,NA,NA,NA,NA,NA,NA,NA,NA,NA,NA,NA,"Best Confirmed Overall Response of CR/PR by Investigator","CBCP","Tumor Response","Investigator","RECIST 1.1",0,"N","Y",NA,NA,NA,NA,NA,NA,NA,NA,NA,NA,NA,NA,NA
"CDISCPILOT01","01-701-1176","1176","701","USA",NA,NA,NA,NA,NA,"2012-09-30",2012-09-30,NA,NA,NA,NA,NA,NA,NA,NA,NA,NA,5,"NA","2012-09-30",NA,62,"YEARS","18-64","F","AMERICAN INDIAN OR ALASKA NATIVE","Non-white","NOT HISPANIC OR LATINO","N","Screen Failure","Scrnfail","Screen Failure","Scrnfail","Screen Failure","Screen Failure",NA,NA,NA,NA,NA,NA,NA,NA,NA,NA,NA,NA,NA,NA,NA,NA,NA,NA,"Best Confirmed Overall Response by Investigator","CBOR","Tumor Response","Investigator","RECIST 1.1",7,"MISSING","Y",NA,NA,NA,NA,NA,NA,NA,NA,NA,NA,NA,NA,NA
"CDISCPILOT01","01-701-1176","1176","701","USA",NA,NA,NA,NA,NA,"2012-09-30",2012-09-30,NA,NA,NA,NA,NA,NA,NA,NA,NA,NA,6,"NA","2012-09-30",NA,62,"YEARS","18-64","F","AMERICAN INDIAN OR ALASKA NATIVE","Non-white","NOT HISPANIC OR LATINO","N","Screen Failure","Scrnfail","Screen Failure","Scrnfail","Screen Failure","Screen Failure",NA,NA,NA,NA,NA,NA,NA,NA,NA,NA,NA,NA,NA,NA,NA,NA,NA,NA,"Confirmed Clinical Benefit by Investigator","CCB","Tumor Response","Investigator","RECIST 1.1",0,"N","Y",NA,NA,NA,NA,NA,NA,NA,NA,NA,NA,NA,NA,NA
"CDISCPILOT01","01-701-1176","1176","701","USA",NA,NA,NA,NA,NA,"2012-09-30",2012-09-30,NA,NA,NA,NA,NA,NA,NA,NA,NA,NA,7,"NA","2012-09-30",NA,62,"YEARS","18-64","F","AMERICAN INDIAN OR ALASKA NATIVE","Non-white","NOT HISPANIC OR LATINO","N","Screen Failure","Scrnfail","Screen Failure","Scrnfail","Screen Failure","Screen Failure",NA,NA,NA,NA,NA,NA,NA,NA,NA,NA,NA,NA,NA,NA,NA,NA,NA,NA,"Confirmed Response by Investigator","CRSP","Tumor Response","Investigator","RECIST 1.1",0,"N","Y",NA,NA,NA,NA,NA,NA,NA,NA,NA,NA,NA,NA,NA
"CDISCPILOT01","01-701-1176","1176","701","USA",NA,NA,NA,NA,NA,"2012-09-30",2012-09-30,NA,NA,NA,NA,NA,NA,NA,NA,NA,NA,8,"NA","2012-09-30",NA,62,"YEARS","18-64","F","AMERICAN INDIAN OR ALASKA NATIVE","Non-white","NOT HISPANIC OR LATINO","N","Screen Failure","Scrnfail","Screen Failure","Scrnfail","Screen Failure","Screen Failure",NA,NA,NA,NA,NA,NA,NA,NA,NA,NA,NA,NA,NA,NA,NA,NA,NA,NA,"Death","DEATH","Reference Event",NA,NA,0,"N","Y",NA,NA,NA,NA,NA,NA,NA,NA,NA,NA,NA,NA,NA
"CDISCPILOT01","01-701-1176","1176","701","USA",NA,NA,NA,NA,NA,"2012-09-30",2012-09-30,NA,NA,NA,NA,NA,NA,NA,NA,NA,NA,9,"NA","2012-09-30",NA,62,"YEARS","18-64","F","AMERICAN INDIAN OR ALASKA NATIVE","Non-white","NOT HISPANIC OR LATINO","N","Screen Failure","Scrnfail","Screen Failure","Scrnfail","Screen Failure","Screen Failure",NA,NA,NA,NA,NA,NA,NA,NA,NA,NA,NA,NA,NA,NA,NA,NA,NA,NA,"Last Disease Assessment by Investigator","LSTA","Tumor Response","Investigator","RECIST 1.1",NA,NA,"Y",NA,NA,NA,NA,NA,NA,NA,NA,NA,NA,NA,NA,NA
"CDISCPILOT01","01-701-1176","1176","701","USA",NA,NA,NA,NA,NA,"2012-09-30",2012-09-30,NA,NA,NA,NA,NA,NA,NA,NA,NA,NA,10,"NA","2012-09-30",NA,62,"YEARS","18-64","F","AMERICAN INDIAN OR ALASKA NATIVE","Non-white","NOT HISPANIC OR LATINO","N","Screen Failure","Scrnfail","Screen Failure","Scrnfail","Screen Failure","Screen Failure",NA,NA,NA,NA,NA,NA,NA,NA,NA,NA,NA,NA,NA,NA,NA,NA,NA,NA,"Measurable Disease at Baseline by Investigator","MDIS",NA,"Investigator","RECIST 1.1",0,"N","Y",NA,NA,NA,NA,NA,NA,NA,NA,NA,NA,NA,NA,NA
"CDISCPILOT01","01-701-1176","1176","701","USA",NA,NA,NA,NA,NA,"2012-09-30",2012-09-30,NA,NA,NA,NA,NA,NA,NA,NA,NA,NA,11,"NA","2012-09-30",NA,62,"YEARS","18-64","F","AMERICAN INDIAN OR ALASKA NATIVE","Non-white","NOT HISPANIC OR LATINO","N","Screen Failure","Scrnfail","Screen Failure","Scrnfail","Screen Failure","Screen Failure",NA,NA,NA,NA,NA,NA,NA,NA,NA,NA,NA,NA,NA,NA,NA,NA,NA,NA,"Disease Progression by Investigator","PD","Tumor Response","Investigator","RECIST 1.1",0,"N","Y",NA,NA,NA,NA,NA,NA,NA,NA,NA,NA,NA,NA,NA
"CDISCPILOT01","01-701-1176","1176","701","USA",NA,NA,NA,NA,NA,"2012-09-30",2012-09-30,NA,NA,NA,NA,NA,NA,NA,NA,NA,NA,12,"NA","2012-09-30",NA,62,"YEARS","18-64","F","AMERICAN INDIAN OR ALASKA NATIVE","Non-white","NOT HISPANIC OR LATINO","N","Screen Failure","Scrnfail","Screen Failure","Scrnfail","Screen Failure","Screen Failure",NA,NA,NA,NA,NA,NA,NA,NA,NA,NA,NA,NA,NA,NA,NA,NA,NA,NA,"Response by Investigator (confirmation not required)","RSP","Tumor Response","Investigator","RECIST 1.1",0,"N","Y",NA,NA,NA,NA,NA,NA,NA,NA,NA,NA,NA,NA,NA
"CDISCPILOT01","01-701-1180","1180","701","USA",NA,"2013-02-12","2013-03-23","2013-02-12","2013-03-18","2013-04-07",NA,NA,NA,NA,NA,NA,NA,NA,NA,NA,NA,1,"NA","2013-01-28",-15,56,"YEARS","18-64","M","WHITE","White","NOT HISPANIC OR LATINO","Y","Xanomeline High Dose","Xan_Hi","Xanomeline High Dose","Xan_Hi","Xanomeline High Dose","Xanomeline High Dose",2013-02-12,2013-02-12,"H",2013-03-18,2013-03-18 23:59:59,"H","DISCONTINUED",2013-03-23,NA,2013-02-12,2013-03-23,35,NA,NA,NA,NA,NA,NA,"Best Overall Response of CR/PR by Investigator (confirmation not required)","BCP","Tumor Response","Investigator","RECIST 1.1",0,"N","Y",NA,NA,NA,NA,NA,NA,NA,NA,NA,NA,NA,NA,NA
"CDISCPILOT01","01-701-1180","1180","701","USA",NA,"2013-02-12","2013-03-23","2013-02-12","2013-03-18","2013-04-07",NA,NA,NA,NA,NA,NA,NA,NA,NA,NA,NA,2,"NA","2013-01-28",-15,56,"YEARS","18-64","M","WHITE","White","NOT HISPANIC OR LATINO","Y","Xanomeline High Dose","Xan_Hi","Xanomeline High Dose","Xan_Hi","Xanomeline High Dose","Xanomeline High Dose",2013-02-12,2013-02-12,"H",2013-03-18,2013-03-18 23:59:59,"H","DISCONTINUED",2013-03-23,NA,2013-02-12,2013-03-23,35,NA,NA,NA,NA,NA,NA,"Best Overall Response by Investigator (confirmation not required)","BOR","Tumor Response","Investigator","RECIST 1.1",7,"MISSING","Y",NA,NA,NA,NA,NA,NA,NA,NA,NA,NA,NA,NA,NA
"CDISCPILOT01","01-701-1180","1180","701","USA",NA,"2013-02-12","2013-03-23","2013-02-12","2013-03-18","2013-04-07",NA,NA,NA,NA,NA,NA,NA,NA,NA,NA,NA,3,"NA","2013-01-28",-15,56,"YEARS","18-64","M","WHITE","White","NOT HISPANIC OR LATINO","Y","Xanomeline High Dose","Xan_Hi","Xanomeline High Dose","Xan_Hi","Xanomeline High Dose","Xanomeline High Dose",2013-02-12,2013-02-12,"H",2013-03-18,2013-03-18 23:59:59,"H","DISCONTINUED",2013-03-23,NA,2013-02-12,2013-03-23,35,NA,NA,NA,NA,NA,NA,"Clinical Benefit by Investigator (confirmation for response not required)","CB","Tumor Response","Investigator","RECIST 1.1",0,"N","Y",NA,NA,NA,NA,NA,NA,NA,NA,NA,NA,NA,NA,NA
"CDISCPILOT01","01-701-1180","1180","701","USA",NA,"2013-02-12","2013-03-23","2013-02-12","2013-03-18","2013-04-07",NA,NA,NA,NA,NA,NA,NA,NA,NA,NA,NA,4,"NA","2013-01-28",-15,56,"YEARS","18-64","M","WHITE","White","NOT HISPANIC OR LATINO","Y","Xanomeline High Dose","Xan_Hi","Xanomeline High Dose","Xan_Hi","Xanomeline High Dose","Xanomeline High Dose",2013-02-12,2013-02-12,"H",2013-03-18,2013-03-18 23:59:59,"H","DISCONTINUED",2013-03-23,NA,2013-02-12,2013-03-23,35,NA,NA,NA,NA,NA,NA,"Best Confirmed Overall Response of CR/PR by Investigator","CBCP","Tumor Response","Investigator","RECIST 1.1",0,"N","Y",NA,NA,NA,NA,NA,NA,NA,NA,NA,NA,NA,NA,NA
"CDISCPILOT01","01-701-1180","1180","701","USA",NA,"2013-02-12","2013-03-23","2013-02-12","2013-03-18","2013-04-07",NA,NA,NA,NA,NA,NA,NA,NA,NA,NA,NA,5,"NA","2013-01-28",-15,56,"YEARS","18-64","M","WHITE","White","NOT HISPANIC OR LATINO","Y","Xanomeline High Dose","Xan_Hi","Xanomeline High Dose","Xan_Hi","Xanomeline High Dose","Xanomeline High Dose",2013-02-12,2013-02-12,"H",2013-03-18,2013-03-18 23:59:59,"H","DISCONTINUED",2013-03-23,NA,2013-02-12,2013-03-23,35,NA,NA,NA,NA,NA,NA,"Best Confirmed Overall Response by Investigator","CBOR","Tumor Response","Investigator","RECIST 1.1",7,"MISSING","Y",NA,NA,NA,NA,NA,NA,NA,NA,NA,NA,NA,NA,NA
"CDISCPILOT01","01-701-1180","1180","701","USA",NA,"2013-02-12","2013-03-23","2013-02-12","2013-03-18","2013-04-07",NA,NA,NA,NA,NA,NA,NA,NA,NA,NA,NA,6,"NA","2013-01-28",-15,56,"YEARS","18-64","M","WHITE","White","NOT HISPANIC OR LATINO","Y","Xanomeline High Dose","Xan_Hi","Xanomeline High Dose","Xan_Hi","Xanomeline High Dose","Xanomeline High Dose",2013-02-12,2013-02-12,"H",2013-03-18,2013-03-18 23:59:59,"H","DISCONTINUED",2013-03-23,NA,2013-02-12,2013-03-23,35,NA,NA,NA,NA,NA,NA,"Confirmed Clinical Benefit by Investigator","CCB","Tumor Response","Investigator","RECIST 1.1",0,"N","Y",NA,NA,NA,NA,NA,NA,NA,NA,NA,NA,NA,NA,NA
"CDISCPILOT01","01-701-1180","1180","701","USA",NA,"2013-02-12","2013-03-23","2013-02-12","2013-03-18","2013-04-07",NA,NA,NA,NA,NA,NA,NA,NA,NA,NA,NA,7,"NA","2013-01-28",-15,56,"YEARS","18-64","M","WHITE","White","NOT HISPANIC OR LATINO","Y","Xanomeline High Dose","Xan_Hi","Xanomeline High Dose","Xan_Hi","Xanomeline High Dose","Xanomeline High Dose",2013-02-12,2013-02-12,"H",2013-03-18,2013-03-18 23:59:59,"H","DISCONTINUED",2013-03-23,NA,2013-02-12,2013-03-23,35,NA,NA,NA,NA,NA,NA,"Confirmed Response by Investigator","CRSP","Tumor Response","Investigator","RECIST 1.1",0,"N","Y",NA,NA,NA,NA,NA,NA,NA,NA,NA,NA,NA,NA,NA
"CDISCPILOT01","01-701-1180","1180","701","USA",NA,"2013-02-12","2013-03-23","2013-02-12","2013-03-18","2013-04-07",NA,NA,NA,NA,NA,NA,NA,NA,NA,NA,NA,8,"NA","2013-01-28",-15,56,"YEARS","18-64","M","WHITE","White","NOT HISPANIC OR LATINO","Y","Xanomeline High Dose","Xan_Hi","Xanomeline High Dose","Xan_Hi","Xanomeline High Dose","Xanomeline High Dose",2013-02-12,2013-02-12,"H",2013-03-18,2013-03-18 23:59:59,"H","DISCONTINUED",2013-03-23,NA,2013-02-12,2013-03-23,35,NA,NA,NA,NA,NA,NA,"Death","DEATH","Reference Event",NA,NA,0,"N","Y",NA,NA,NA,NA,NA,NA,NA,NA,NA,NA,NA,NA,NA
"CDISCPILOT01","01-701-1180","1180","701","USA",NA,"2013-02-12","2013-03-23","2013-02-12","2013-03-18","2013-04-07",NA,NA,NA,NA,NA,NA,NA,NA,NA,NA,NA,9,"NA","2013-01-28",-15,56,"YEARS","18-64","M","WHITE","White","NOT HISPANIC OR LATINO","Y","Xanomeline High Dose","Xan_Hi","Xanomeline High Dose","Xan_Hi","Xanomeline High Dose","Xanomeline High Dose",2013-02-12,2013-02-12,"H",2013-03-18,2013-03-18 23:59:59,"H","DISCONTINUED",2013-03-23,NA,2013-02-12,2013-03-23,35,NA,NA,NA,NA,NA,NA,"Last Disease Assessment by Investigator","LSTA","Tumor Response","Investigator","RECIST 1.1",NA,NA,"Y",NA,NA,NA,NA,NA,NA,NA,NA,NA,NA,NA,NA,NA
"CDISCPILOT01","01-701-1180","1180","701","USA",NA,"2013-02-12","2013-03-23","2013-02-12","2013-03-18","2013-04-07",NA,NA,NA,NA,NA,NA,NA,NA,NA,NA,NA,10,"NA","2013-01-28",-15,56,"YEARS","18-64","M","WHITE","White","NOT HISPANIC OR LATINO","Y","Xanomeline High Dose","Xan_Hi","Xanomeline High Dose","Xan_Hi","Xanomeline High Dose","Xanomeline High Dose",2013-02-12,2013-02-12,"H",2013-03-18,2013-03-18 23:59:59,"H","DISCONTINUED",2013-03-23,NA,NA,2013-03-23,35,NA,NA,NA,NA,NA,NA,"Measurable Disease at Baseline by Investigator","MDIS",NA,"Investigator","RECIST 1.1",0,"N","Y",NA,NA,NA,NA,NA,NA,NA,NA,NA,NA,NA,NA,NA
"CDISCPILOT01","01-701-1180","1180","701","USA",NA,"2013-02-12","2013-03-23","2013-02-12","2013-03-18","2013-04-07",NA,NA,NA,NA,NA,NA,NA,NA,NA,NA,NA,11,"NA","2013-01-28",-15,56,"YEARS","18-64","M","WHITE","White","NOT HISPANIC OR LATINO","Y","Xanomeline High Dose","Xan_Hi","Xanomeline High Dose","Xan_Hi","Xanomeline High Dose","Xanomeline High Dose",2013-02-12,2013-02-12,"H",2013-03-18,2013-03-18 23:59:59,"H","DISCONTINUED",2013-03-23,NA,2013-02-12,2013-03-23,35,NA,NA,NA,NA,NA,NA,"Disease Progression by Investigator","PD","Tumor Response","Investigator","RECIST 1.1",0,"N","Y",NA,NA,NA,NA,NA,NA,NA,NA,NA,NA,NA,NA,NA
"CDISCPILOT01","01-701-1180","1180","701","USA",NA,"2013-02-12","2013-03-23","2013-02-12","2013-03-18","2013-04-07",NA,NA,NA,NA,NA,NA,NA,NA,NA,NA,NA,12,"NA","2013-01-28",-15,56,"YEARS","18-64","M","WHITE","White","NOT HISPANIC OR LATINO","Y","Xanomeline High Dose","Xan_Hi","Xanomeline High Dose","Xan_Hi","Xanomeline High Dose","Xanomeline High Dose",2013-02-12,2013-02-12,"H",2013-03-18,2013-03-18 23:59:59,"H","DISCONTINUED",2013-03-23,NA,2013-02-12,2013-03-23,35,NA,NA,NA,NA,NA,NA,"Response by Investigator (confirmation not required)","RSP","Tumor Response","Investigator","RECIST 1.1",0,"N","Y",NA,NA,NA,NA,NA,NA,NA,NA,NA,NA,NA,NA,NA
"CDISCPILOT01","01-701-1181","1181","701","USA",NA,"2013-12-05","2013-12-12","2013-12-05","2013-12-09","2014-05-23",NA,2014-05-23,NA,NA,NA,NA,NA,NA,NA,NA,NA,1,"NA","2013-11-26",-9,79,"YEARS",">64","F","WHITE","White","NOT HISPANIC OR LATINO","Y","Xanomeline High Dose","Xan_Hi","Xanomeline Low Dose","Xan_Lo","Xanomeline High Dose","Xanomeline Low Dose",2013-12-05,2013-12-05,"H",2013-12-09,2013-12-09 23:59:59,"H","DISCONTINUED",2013-12-12,NA,2013-12-05,2013-12-12,5,NA,NA,NA,NA,NA,NA,"Best Overall Response of CR/PR by Investigator (confirmation not required)","BCP","Tumor Response","Investigator","RECIST 1.1",0,"N","Y",NA,NA,NA,NA,NA,NA,NA,NA,NA,NA,NA,NA,NA
"CDISCPILOT01","01-701-1181","1181","701","USA",NA,"2013-12-05","2013-12-12","2013-12-05","2013-12-09","2014-05-23",NA,2014-05-23,NA,NA,NA,NA,NA,NA,NA,NA,NA,2,"NA","2013-11-26",-9,79,"YEARS",">64","F","WHITE","White","NOT HISPANIC OR LATINO","Y","Xanomeline High Dose","Xan_Hi","Xanomeline Low Dose","Xan_Lo","Xanomeline High Dose","Xanomeline Low Dose",2013-12-05,2013-12-05,"H",2013-12-09,2013-12-09 23:59:59,"H","DISCONTINUED",2013-12-12,NA,2013-12-05,2013-12-12,5,NA,NA,NA,NA,NA,NA,"Best Overall Response by Investigator (confirmation not required)","BOR","Tumor Response","Investigator","RECIST 1.1",7,"MISSING","Y",NA,NA,NA,NA,NA,NA,NA,NA,NA,NA,NA,NA,NA
"CDISCPILOT01","01-701-1181","1181","701","USA",NA,"2013-12-05","2013-12-12","2013-12-05","2013-12-09","2014-05-23",NA,2014-05-23,NA,NA,NA,NA,NA,NA,NA,NA,NA,3,"NA","2013-11-26",-9,79,"YEARS",">64","F","WHITE","White","NOT HISPANIC OR LATINO","Y","Xanomeline High Dose","Xan_Hi","Xanomeline Low Dose","Xan_Lo","Xanomeline High Dose","Xanomeline Low Dose",2013-12-05,2013-12-05,"H",2013-12-09,2013-12-09 23:59:59,"H","DISCONTINUED",2013-12-12,NA,2013-12-05,2013-12-12,5,NA,NA,NA,NA,NA,NA,"Clinical Benefit by Investigator (confirmation for response not required)","CB","Tumor Response","Investigator","RECIST 1.1",0,"N","Y",NA,NA,NA,NA,NA,NA,NA,NA,NA,NA,NA,NA,NA
"CDISCPILOT01","01-701-1181","1181","701","USA",NA,"2013-12-05","2013-12-12","2013-12-05","2013-12-09","2014-05-23",NA,2014-05-23,NA,NA,NA,NA,NA,NA,NA,NA,NA,4,"NA","2013-11-26",-9,79,"YEARS",">64","F","WHITE","White","NOT HISPANIC OR LATINO","Y","Xanomeline High Dose","Xan_Hi","Xanomeline Low Dose","Xan_Lo","Xanomeline High Dose","Xanomeline Low Dose",2013-12-05,2013-12-05,"H",2013-12-09,2013-12-09 23:59:59,"H","DISCONTINUED",2013-12-12,NA,2013-12-05,2013-12-12,5,NA,NA,NA,NA,NA,NA,"Best Confirmed Overall Response of CR/PR by Investigator","CBCP","Tumor Response","Investigator","RECIST 1.1",0,"N","Y",NA,NA,NA,NA,NA,NA,NA,NA,NA,NA,NA,NA,NA
"CDISCPILOT01","01-701-1181","1181","701","USA",NA,"2013-12-05","2013-12-12","2013-12-05","2013-12-09","2014-05-23",NA,2014-05-23,NA,NA,NA,NA,NA,NA,NA,NA,NA,5,"NA","2013-11-26",-9,79,"YEARS",">64","F","WHITE","White","NOT HISPANIC OR LATINO","Y","Xanomeline High Dose","Xan_Hi","Xanomeline Low Dose","Xan_Lo","Xanomeline High Dose","Xanomeline Low Dose",2013-12-05,2013-12-05,"H",2013-12-09,2013-12-09 23:59:59,"H","DISCONTINUED",2013-12-12,NA,2013-12-05,2013-12-12,5,NA,NA,NA,NA,NA,NA,"Best Confirmed Overall Response by Investigator","CBOR","Tumor Response","Investigator","RECIST 1.1",7,"MISSING","Y",NA,NA,NA,NA,NA,NA,NA,NA,NA,NA,NA,NA,NA
"CDISCPILOT01","01-701-1181","1181","701","USA",NA,"2013-12-05","2013-12-12","2013-12-05","2013-12-09","2014-05-23",NA,2014-05-23,NA,NA,NA,NA,NA,NA,NA,NA,NA,6,"NA","2013-11-26",-9,79,"YEARS",">64","F","WHITE","White","NOT HISPANIC OR LATINO","Y","Xanomeline High Dose","Xan_Hi","Xanomeline Low Dose","Xan_Lo","Xanomeline High Dose","Xanomeline Low Dose",2013-12-05,2013-12-05,"H",2013-12-09,2013-12-09 23:59:59,"H","DISCONTINUED",2013-12-12,NA,2013-12-05,2013-12-12,5,NA,NA,NA,NA,NA,NA,"Confirmed Clinical Benefit by Investigator","CCB","Tumor Response","Investigator","RECIST 1.1",0,"N","Y",NA,NA,NA,NA,NA,NA,NA,NA,NA,NA,NA,NA,NA
"CDISCPILOT01","01-701-1181","1181","701","USA",NA,"2013-12-05","2013-12-12","2013-12-05","2013-12-09","2014-05-23",NA,2014-05-23,NA,NA,NA,NA,NA,NA,NA,NA,NA,7,"NA","2013-11-26",-9,79,"YEARS",">64","F","WHITE","White","NOT HISPANIC OR LATINO","Y","Xanomeline High Dose","Xan_Hi","Xanomeline Low Dose","Xan_Lo","Xanomeline High Dose","Xanomeline Low Dose",2013-12-05,2013-12-05,"H",2013-12-09,2013-12-09 23:59:59,"H","DISCONTINUED",2013-12-12,NA,2013-12-05,2013-12-12,5,NA,NA,NA,NA,NA,NA,"Confirmed Response by Investigator","CRSP","Tumor Response","Investigator","RECIST 1.1",0,"N","Y",NA,NA,NA,NA,NA,NA,NA,NA,NA,NA,NA,NA,NA
"CDISCPILOT01","01-701-1181","1181","701","USA",NA,"2013-12-05","2013-12-12","2013-12-05","2013-12-09","2014-05-23",NA,2014-05-23,NA,NA,NA,NA,NA,NA,NA,NA,NA,8,"NA","2013-11-26",-9,79,"YEARS",">64","F","WHITE","White","NOT HISPANIC OR LATINO","Y","Xanomeline High Dose","Xan_Hi","Xanomeline Low Dose","Xan_Lo","Xanomeline High Dose","Xanomeline Low Dose",2013-12-05,2013-12-05,"H",2013-12-09,2013-12-09 23:59:59,"H","DISCONTINUED",2013-12-12,NA,2013-12-05,2013-12-12,5,NA,NA,NA,NA,NA,NA,"Death","DEATH","Reference Event",NA,NA,0,"N","Y",NA,NA,NA,NA,NA,NA,NA,NA,NA,NA,NA,NA,NA
"CDISCPILOT01","01-701-1181","1181","701","USA",NA,"2013-12-05","2013-12-12","2013-12-05","2013-12-09","2014-05-23",NA,2014-05-23,NA,NA,NA,NA,NA,NA,NA,NA,NA,9,"NA","2013-11-26",-9,79,"YEARS",">64","F","WHITE","White","NOT HISPANIC OR LATINO","Y","Xanomeline High Dose","Xan_Hi","Xanomeline Low Dose","Xan_Lo","Xanomeline High Dose","Xanomeline Low Dose",2013-12-05,2013-12-05,"H",2013-12-09,2013-12-09 23:59:59,"H","DISCONTINUED",2013-12-12,NA,2013-12-05,2013-12-12,5,NA,NA,NA,NA,NA,NA,"Last Disease Assessment by Investigator","LSTA","Tumor Response","Investigator","RECIST 1.1",NA,NA,"Y",NA,NA,NA,NA,NA,NA,NA,NA,NA,NA,NA,NA,NA
"CDISCPILOT01","01-701-1181","1181","701","USA",NA,"2013-12-05","2013-12-12","2013-12-05","2013-12-09","2014-05-23",NA,2014-05-23,NA,NA,NA,NA,NA,NA,NA,NA,NA,10,"NA","2013-11-26",-9,79,"YEARS",">64","F","WHITE","White","NOT HISPANIC OR LATINO","Y","Xanomeline High Dose","Xan_Hi","Xanomeline Low Dose","Xan_Lo","Xanomeline High Dose","Xanomeline Low Dose",2013-12-05,2013-12-05,"H",2013-12-09,2013-12-09 23:59:59,"H","DISCONTINUED",2013-12-12,NA,NA,2013-12-12,5,NA,NA,NA,NA,NA,NA,"Measurable Disease at Baseline by Investigator","MDIS",NA,"Investigator","RECIST 1.1",0,"N","Y",NA,NA,NA,NA,NA,NA,NA,NA,NA,NA,NA,NA,NA
"CDISCPILOT01","01-701-1181","1181","701","USA",NA,"2013-12-05","2013-12-12","2013-12-05","2013-12-09","2014-05-23",NA,2014-05-23,NA,NA,NA,NA,NA,NA,NA,NA,NA,11,"NA","2013-11-26",-9,79,"YEARS",">64","F","WHITE","White","NOT HISPANIC OR LATINO","Y","Xanomeline High Dose","Xan_Hi","Xanomeline Low Dose","Xan_Lo","Xanomeline High Dose","Xanomeline Low Dose",2013-12-05,2013-12-05,"H",2013-12-09,2013-12-09 23:59:59,"H","DISCONTINUED",2013-12-12,NA,2013-12-05,2013-12-12,5,NA,NA,NA,NA,NA,NA,"Disease Progression by Investigator","PD","Tumor Response","Investigator","RECIST 1.1",0,"N","Y",NA,NA,NA,NA,NA,NA,NA,NA,NA,NA,NA,NA,NA
"CDISCPILOT01","01-701-1181","1181","701","USA",NA,"2013-12-05","2013-12-12","2013-12-05","2013-12-09","2014-05-23",NA,2014-05-23,NA,NA,NA,NA,NA,NA,NA,NA,NA,12,"NA","2013-11-26",-9,79,"YEARS",">64","F","WHITE","White","NOT HISPANIC OR LATINO","Y","Xanomeline High Dose","Xan_Hi","Xanomeline Low Dose","Xan_Lo","Xanomeline High Dose","Xanomeline Low Dose",2013-12-05,2013-12-05,"H",2013-12-09,2013-12-09 23:59:59,"H","DISCONTINUED",2013-12-12,NA,2013-12-05,2013-12-12,5,NA,NA,NA,NA,NA,NA,"Response by Investigator (confirmation not required)","RSP","Tumor Response","Investigator","RECIST 1.1",0,"N","Y",NA,NA,NA,NA,NA,NA,NA,NA,NA,NA,NA,NA,NA
"CDISCPILOT01","01-701-1188","1188","701","USA",NA,"2013-02-15","2013-03-25","2013-02-15","2013-03-24","2013-08-04",NA,2013-08-04,NA,NA,NA,NA,NA,NA,NA,NA,NA,1,"NA","2013-02-03",-12,71,"YEARS",">64","M","WHITE","White","NOT HISPANIC OR LATINO","Y","Xanomeline Low Dose","Xan_Lo","Xanomeline Low Dose","Xan_Lo","Xanomeline Low Dose","Xanomeline Low Dose",2013-02-15,2013-02-15,"H",2013-03-24,2013-03-24 23:59:59,"H","DISCONTINUED",2013-03-25,NA,2013-02-15,2013-03-25,38,NA,NA,NA,NA,NA,NA,"Best Overall Response of CR/PR by Investigator (confirmation not required)","BCP","Tumor Response","Investigator","RECIST 1.1",0,"N","Y",NA,NA,NA,NA,NA,NA,NA,NA,NA,NA,NA,NA,NA
"CDISCPILOT01","01-701-1188","1188","701","USA",NA,"2013-02-15","2013-03-25","2013-02-15","2013-03-24","2013-08-04",NA,2013-08-04,NA,NA,NA,NA,NA,NA,NA,NA,NA,2,"NA","2013-02-03",-12,71,"YEARS",">64","M","WHITE","White","NOT HISPANIC OR LATINO","Y","Xanomeline Low Dose","Xan_Lo","Xanomeline Low Dose","Xan_Lo","Xanomeline Low Dose","Xanomeline Low Dose",2013-02-15,2013-02-15,"H",2013-03-24,2013-03-24 23:59:59,"H","DISCONTINUED",2013-03-25,NA,2013-02-15,2013-03-25,38,NA,NA,NA,NA,NA,NA,"Best Overall Response by Investigator (confirmation not required)","BOR","Tumor Response","Investigator","RECIST 1.1",7,"MISSING","Y",NA,NA,NA,NA,NA,NA,NA,NA,NA,NA,NA,NA,NA
"CDISCPILOT01","01-701-1188","1188","701","USA",NA,"2013-02-15","2013-03-25","2013-02-15","2013-03-24","2013-08-04",NA,2013-08-04,NA,NA,NA,NA,NA,NA,NA,NA,NA,3,"NA","2013-02-03",-12,71,"YEARS",">64","M","WHITE","White","NOT HISPANIC OR LATINO","Y","Xanomeline Low Dose","Xan_Lo","Xanomeline Low Dose","Xan_Lo","Xanomeline Low Dose","Xanomeline Low Dose",2013-02-15,2013-02-15,"H",2013-03-24,2013-03-24 23:59:59,"H","DISCONTINUED",2013-03-25,NA,2013-02-15,2013-03-25,38,NA,NA,NA,NA,NA,NA,"Clinical Benefit by Investigator (confirmation for response not required)","CB","Tumor Response","Investigator","RECIST 1.1",0,"N","Y",NA,NA,NA,NA,NA,NA,NA,NA,NA,NA,NA,NA,NA
"CDISCPILOT01","01-701-1188","1188","701","USA",NA,"2013-02-15","2013-03-25","2013-02-15","2013-03-24","2013-08-04",NA,2013-08-04,NA,NA,NA,NA,NA,NA,NA,NA,NA,4,"NA","2013-02-03",-12,71,"YEARS",">64","M","WHITE","White","NOT HISPANIC OR LATINO","Y","Xanomeline Low Dose","Xan_Lo","Xanomeline Low Dose","Xan_Lo","Xanomeline Low Dose","Xanomeline Low Dose",2013-02-15,2013-02-15,"H",2013-03-24,2013-03-24 23:59:59,"H","DISCONTINUED",2013-03-25,NA,2013-02-15,2013-03-25,38,NA,NA,NA,NA,NA,NA,"Best Confirmed Overall Response of CR/PR by Investigator","CBCP","Tumor Response","Investigator","RECIST 1.1",0,"N","Y",NA,NA,NA,NA,NA,NA,NA,NA,NA,NA,NA,NA,NA
"CDISCPILOT01","01-701-1188","1188","701","USA",NA,"2013-02-15","2013-03-25","2013-02-15","2013-03-24","2013-08-04",NA,2013-08-04,NA,NA,NA,NA,NA,NA,NA,NA,NA,5,"NA","2013-02-03",-12,71,"YEARS",">64","M","WHITE","White","NOT HISPANIC OR LATINO","Y","Xanomeline Low Dose","Xan_Lo","Xanomeline Low Dose","Xan_Lo","Xanomeline Low Dose","Xanomeline Low Dose",2013-02-15,2013-02-15,"H",2013-03-24,2013-03-24 23:59:59,"H","DISCONTINUED",2013-03-25,NA,2013-02-15,2013-03-25,38,NA,NA,NA,NA,NA,NA,"Best Confirmed Overall Response by Investigator","CBOR","Tumor Response","Investigator","RECIST 1.1",7,"MISSING","Y",NA,NA,NA,NA,NA,NA,NA,NA,NA,NA,NA,NA,NA
"CDISCPILOT01","01-701-1188","1188","701","USA",NA,"2013-02-15","2013-03-25","2013-02-15","2013-03-24","2013-08-04",NA,2013-08-04,NA,NA,NA,NA,NA,NA,NA,NA,NA,6,"NA","2013-02-03",-12,71,"YEARS",">64","M","WHITE","White","NOT HISPANIC OR LATINO","Y","Xanomeline Low Dose","Xan_Lo","Xanomeline Low Dose","Xan_Lo","Xanomeline Low Dose","Xanomeline Low Dose",2013-02-15,2013-02-15,"H",2013-03-24,2013-03-24 23:59:59,"H","DISCONTINUED",2013-03-25,NA,2013-02-15,2013-03-25,38,NA,NA,NA,NA,NA,NA,"Confirmed Clinical Benefit by Investigator","CCB","Tumor Response","Investigator","RECIST 1.1",0,"N","Y",NA,NA,NA,NA,NA,NA,NA,NA,NA,NA,NA,NA,NA
"CDISCPILOT01","01-701-1188","1188","701","USA",NA,"2013-02-15","2013-03-25","2013-02-15","2013-03-24","2013-08-04",NA,2013-08-04,NA,NA,NA,NA,NA,NA,NA,NA,NA,7,"NA","2013-02-03",-12,71,"YEARS",">64","M","WHITE","White","NOT HISPANIC OR LATINO","Y","Xanomeline Low Dose","Xan_Lo","Xanomeline Low Dose","Xan_Lo","Xanomeline Low Dose","Xanomeline Low Dose",2013-02-15,2013-02-15,"H",2013-03-24,2013-03-24 23:59:59,"H","DISCONTINUED",2013-03-25,NA,2013-02-15,2013-03-25,38,NA,NA,NA,NA,NA,NA,"Confirmed Response by Investigator","CRSP","Tumor Response","Investigator","RECIST 1.1",0,"N","Y",NA,NA,NA,NA,NA,NA,NA,NA,NA,NA,NA,NA,NA
"CDISCPILOT01","01-701-1188","1188","701","USA",NA,"2013-02-15","2013-03-25","2013-02-15","2013-03-24","2013-08-04",NA,2013-08-04,NA,NA,NA,NA,NA,NA,NA,NA,NA,8,"NA","2013-02-03",-12,71,"YEARS",">64","M","WHITE","White","NOT HISPANIC OR LATINO","Y","Xanomeline Low Dose","Xan_Lo","Xanomeline Low Dose","Xan_Lo","Xanomeline Low Dose","Xanomeline Low Dose",2013-02-15,2013-02-15,"H",2013-03-24,2013-03-24 23:59:59,"H","DISCONTINUED",2013-03-25,NA,2013-02-15,2013-03-25,38,NA,NA,NA,NA,NA,NA,"Death","DEATH","Reference Event",NA,NA,0,"N","Y",NA,NA,NA,NA,NA,NA,NA,NA,NA,NA,NA,NA,NA
"CDISCPILOT01","01-701-1188","1188","701","USA",NA,"2013-02-15","2013-03-25","2013-02-15","2013-03-24","2013-08-04",NA,2013-08-04,NA,NA,NA,NA,NA,NA,NA,NA,NA,9,"NA","2013-02-03",-12,71,"YEARS",">64","M","WHITE","White","NOT HISPANIC OR LATINO","Y","Xanomeline Low Dose","Xan_Lo","Xanomeline Low Dose","Xan_Lo","Xanomeline Low Dose","Xanomeline Low Dose",2013-02-15,2013-02-15,"H",2013-03-24,2013-03-24 23:59:59,"H","DISCONTINUED",2013-03-25,NA,2013-02-15,2013-03-25,38,NA,NA,NA,NA,NA,NA,"Last Disease Assessment by Investigator","LSTA","Tumor Response","Investigator","RECIST 1.1",NA,NA,"Y",NA,NA,NA,NA,NA,NA,NA,NA,NA,NA,NA,NA,NA
"CDISCPILOT01","01-701-1188","1188","701","USA",NA,"2013-02-15","2013-03-25","2013-02-15","2013-03-24","2013-08-04",NA,2013-08-04,NA,NA,NA,NA,NA,NA,NA,NA,NA,10,"NA","2013-02-03",-12,71,"YEARS",">64","M","WHITE","White","NOT HISPANIC OR LATINO","Y","Xanomeline Low Dose","Xan_Lo","Xanomeline Low Dose","Xan_Lo","Xanomeline Low Dose","Xanomeline Low Dose",2013-02-15,2013-02-15,"H",2013-03-24,2013-03-24 23:59:59,"H","DISCONTINUED",2013-03-25,NA,NA,2013-03-25,38,NA,NA,NA,NA,NA,NA,"Measurable Disease at Baseline by Investigator","MDIS",NA,"Investigator","RECIST 1.1",0,"N","Y",NA,NA,NA,NA,NA,NA,NA,NA,NA,NA,NA,NA,NA
"CDISCPILOT01","01-701-1188","1188","701","USA",NA,"2013-02-15","2013-03-25","2013-02-15","2013-03-24","2013-08-04",NA,2013-08-04,NA,NA,NA,NA,NA,NA,NA,NA,NA,11,"NA","2013-02-03",-12,71,"YEARS",">64","M","WHITE","White","NOT HISPANIC OR LATINO","Y","Xanomeline Low Dose","Xan_Lo","Xanomeline Low Dose","Xan_Lo","Xanomeline Low Dose","Xanomeline Low Dose",2013-02-15,2013-02-15,"H",2013-03-24,2013-03-24 23:59:59,"H","DISCONTINUED",2013-03-25,NA,2013-02-15,2013-03-25,38,NA,NA,NA,NA,NA,NA,"Disease Progression by Investigator","PD","Tumor Response","Investigator","RECIST 1.1",0,"N","Y",NA,NA,NA,NA,NA,NA,NA,NA,NA,NA,NA,NA,NA
"CDISCPILOT01","01-701-1188","1188","701","USA",NA,"2013-02-15","2013-03-25","2013-02-15","2013-03-24","2013-08-04",NA,2013-08-04,NA,NA,NA,NA,NA,NA,NA,NA,NA,12,"NA","2013-02-03",-12,71,"YEARS",">64","M","WHITE","White","NOT HISPANIC OR LATINO","Y","Xanomeline Low Dose","Xan_Lo","Xanomeline Low Dose","Xan_Lo","Xanomeline Low Dose","Xanomeline Low Dose",2013-02-15,2013-02-15,"H",2013-03-24,2013-03-24 23:59:59,"H","DISCONTINUED",2013-03-25,NA,2013-02-15,2013-03-25,38,NA,NA,NA,NA,NA,NA,"Response by Investigator (confirmation not required)","RSP","Tumor Response","Investigator","RECIST 1.1",0,"N","Y",NA,NA,NA,NA,NA,NA,NA,NA,NA,NA,NA,NA,NA
"CDISCPILOT01","01-701-1192","1192","701","USA",NA,"2012-07-22","2013-01-20","2012-07-22","2013-01-20","2013-01-20T15:47",NA,NA,NA,NA,NA,NA,NA,NA,NA,NA,NA,1,"NA","2012-07-08",-14,80,"YEARS",">64","F","WHITE","White","NOT HISPANIC OR LATINO","Y","Xanomeline Low Dose","Xan_Lo","Xanomeline Low Dose","Xan_Lo","Xanomeline Low Dose","Xanomeline Low Dose",2012-07-22,2012-07-22,"H",2013-01-20,2013-01-20 23:59:59,"H","COMPLETED",2013-01-20,NA,2012-07-22,2013-01-20,183,NA,NA,NA,NA,NA,NA,"Best Overall Response of CR/PR by Investigator (confirmation not required)","BCP","Tumor Response","Investigator","RECIST 1.1",0,"N","Y",NA,NA,NA,NA,NA,NA,NA,NA,NA,NA,NA,NA,NA
"CDISCPILOT01","01-701-1192","1192","701","USA",NA,"2012-07-22","2013-01-20","2012-07-22","2013-01-20","2013-01-20T15:47",NA,NA,NA,NA,NA,NA,NA,NA,NA,NA,NA,2,"NA","2012-07-08",-14,80,"YEARS",">64","F","WHITE","White","NOT HISPANIC OR LATINO","Y","Xanomeline Low Dose","Xan_Lo","Xanomeline Low Dose","Xan_Lo","Xanomeline Low Dose","Xanomeline Low Dose",2012-07-22,2012-07-22,"H",2013-01-20,2013-01-20 23:59:59,"H","COMPLETED",2013-01-20,NA,2012-07-22,2013-01-20,183,NA,NA,NA,NA,NA,NA,"Best Overall Response by Investigator (confirmation not required)","BOR","Tumor Response","Investigator","RECIST 1.1",7,"MISSING","Y",NA,NA,NA,NA,NA,NA,NA,NA,NA,NA,NA,NA,NA
"CDISCPILOT01","01-701-1192","1192","701","USA",NA,"2012-07-22","2013-01-20","2012-07-22","2013-01-20","2013-01-20T15:47",NA,NA,NA,NA,NA,NA,NA,NA,NA,NA,NA,3,"NA","2012-07-08",-14,80,"YEARS",">64","F","WHITE","White","NOT HISPANIC OR LATINO","Y","Xanomeline Low Dose","Xan_Lo","Xanomeline Low Dose","Xan_Lo","Xanomeline Low Dose","Xanomeline Low Dose",2012-07-22,2012-07-22,"H",2013-01-20,2013-01-20 23:59:59,"H","COMPLETED",2013-01-20,NA,2012-07-22,2013-01-20,183,NA,NA,NA,NA,NA,NA,"Clinical Benefit by Investigator (confirmation for response not required)","CB","Tumor Response","Investigator","RECIST 1.1",0,"N","Y",NA,NA,NA,NA,NA,NA,NA,NA,NA,NA,NA,NA,NA
"CDISCPILOT01","01-701-1192","1192","701","USA",NA,"2012-07-22","2013-01-20","2012-07-22","2013-01-20","2013-01-20T15:47",NA,NA,NA,NA,NA,NA,NA,NA,NA,NA,NA,4,"NA","2012-07-08",-14,80,"YEARS",">64","F","WHITE","White","NOT HISPANIC OR LATINO","Y","Xanomeline Low Dose","Xan_Lo","Xanomeline Low Dose","Xan_Lo","Xanomeline Low Dose","Xanomeline Low Dose",2012-07-22,2012-07-22,"H",2013-01-20,2013-01-20 23:59:59,"H","COMPLETED",2013-01-20,NA,2012-07-22,2013-01-20,183,NA,NA,NA,NA,NA,NA,"Best Confirmed Overall Response of CR/PR by Investigator","CBCP","Tumor Response","Investigator","RECIST 1.1",0,"N","Y",NA,NA,NA,NA,NA,NA,NA,NA,NA,NA,NA,NA,NA
"CDISCPILOT01","01-701-1192","1192","701","USA",NA,"2012-07-22","2013-01-20","2012-07-22","2013-01-20","2013-01-20T15:47",NA,NA,NA,NA,NA,NA,NA,NA,NA,NA,NA,5,"NA","2012-07-08",-14,80,"YEARS",">64","F","WHITE","White","NOT HISPANIC OR LATINO","Y","Xanomeline Low Dose","Xan_Lo","Xanomeline Low Dose","Xan_Lo","Xanomeline Low Dose","Xanomeline Low Dose",2012-07-22,2012-07-22,"H",2013-01-20,2013-01-20 23:59:59,"H","COMPLETED",2013-01-20,NA,2012-07-22,2013-01-20,183,NA,NA,NA,NA,NA,NA,"Best Confirmed Overall Response by Investigator","CBOR","Tumor Response","Investigator","RECIST 1.1",7,"MISSING","Y",NA,NA,NA,NA,NA,NA,NA,NA,NA,NA,NA,NA,NA
"CDISCPILOT01","01-701-1192","1192","701","USA",NA,"2012-07-22","2013-01-20","2012-07-22","2013-01-20","2013-01-20T15:47",NA,NA,NA,NA,NA,NA,NA,NA,NA,NA,NA,6,"NA","2012-07-08",-14,80,"YEARS",">64","F","WHITE","White","NOT HISPANIC OR LATINO","Y","Xanomeline Low Dose","Xan_Lo","Xanomeline Low Dose","Xan_Lo","Xanomeline Low Dose","Xanomeline Low Dose",2012-07-22,2012-07-22,"H",2013-01-20,2013-01-20 23:59:59,"H","COMPLETED",2013-01-20,NA,2012-07-22,2013-01-20,183,NA,NA,NA,NA,NA,NA,"Confirmed Clinical Benefit by Investigator","CCB","Tumor Response","Investigator","RECIST 1.1",0,"N","Y",NA,NA,NA,NA,NA,NA,NA,NA,NA,NA,NA,NA,NA
"CDISCPILOT01","01-701-1192","1192","701","USA",NA,"2012-07-22","2013-01-20","2012-07-22","2013-01-20","2013-01-20T15:47",NA,NA,NA,NA,NA,NA,NA,NA,NA,NA,NA,7,"NA","2012-07-08",-14,80,"YEARS",">64","F","WHITE","White","NOT HISPANIC OR LATINO","Y","Xanomeline Low Dose","Xan_Lo","Xanomeline Low Dose","Xan_Lo","Xanomeline Low Dose","Xanomeline Low Dose",2012-07-22,2012-07-22,"H",2013-01-20,2013-01-20 23:59:59,"H","COMPLETED",2013-01-20,NA,2012-07-22,2013-01-20,183,NA,NA,NA,NA,NA,NA,"Confirmed Response by Investigator","CRSP","Tumor Response","Investigator","RECIST 1.1",0,"N","Y",NA,NA,NA,NA,NA,NA,NA,NA,NA,NA,NA,NA,NA
"CDISCPILOT01","01-701-1192","1192","701","USA",NA,"2012-07-22","2013-01-20","2012-07-22","2013-01-20","2013-01-20T15:47",NA,NA,NA,NA,NA,NA,NA,NA,NA,NA,NA,8,"NA","2012-07-08",-14,80,"YEARS",">64","F","WHITE","White","NOT HISPANIC OR LATINO","Y","Xanomeline Low Dose","Xan_Lo","Xanomeline Low Dose","Xan_Lo","Xanomeline Low Dose","Xanomeline Low Dose",2012-07-22,2012-07-22,"H",2013-01-20,2013-01-20 23:59:59,"H","COMPLETED",2013-01-20,NA,2012-07-22,2013-01-20,183,NA,NA,NA,NA,NA,NA,"Death","DEATH","Reference Event",NA,NA,0,"N","Y",NA,NA,NA,NA,NA,NA,NA,NA,NA,NA,NA,NA,NA
"CDISCPILOT01","01-701-1192","1192","701","USA",NA,"2012-07-22","2013-01-20","2012-07-22","2013-01-20","2013-01-20T15:47",NA,NA,NA,NA,NA,NA,NA,NA,NA,NA,NA,9,"NA","2012-07-08",-14,80,"YEARS",">64","F","WHITE","White","NOT HISPANIC OR LATINO","Y","Xanomeline Low Dose","Xan_Lo","Xanomeline Low Dose","Xan_Lo","Xanomeline Low Dose","Xanomeline Low Dose",2012-07-22,2012-07-22,"H",2013-01-20,2013-01-20 23:59:59,"H","COMPLETED",2013-01-20,NA,2012-07-22,2013-01-20,183,NA,NA,NA,NA,NA,NA,"Last Disease Assessment by Investigator","LSTA","Tumor Response","Investigator","RECIST 1.1",NA,NA,"Y",NA,NA,NA,NA,NA,NA,NA,NA,NA,NA,NA,NA,NA
"CDISCPILOT01","01-701-1192","1192","701","USA",NA,"2012-07-22","2013-01-20","2012-07-22","2013-01-20","2013-01-20T15:47",NA,NA,NA,NA,NA,NA,NA,NA,NA,NA,NA,10,"NA","2012-07-08",-14,80,"YEARS",">64","F","WHITE","White","NOT HISPANIC OR LATINO","Y","Xanomeline Low Dose","Xan_Lo","Xanomeline Low Dose","Xan_Lo","Xanomeline Low Dose","Xanomeline Low Dose",2012-07-22,2012-07-22,"H",2013-01-20,2013-01-20 23:59:59,"H","COMPLETED",2013-01-20,NA,NA,2013-01-20,183,NA,NA,NA,NA,NA,NA,"Measurable Disease at Baseline by Investigator","MDIS",NA,"Investigator","RECIST 1.1",0,"N","Y",NA,NA,NA,NA,NA,NA,NA,NA,NA,NA,NA,NA,NA
"CDISCPILOT01","01-701-1192","1192","701","USA",NA,"2012-07-22","2013-01-20","2012-07-22","2013-01-20","2013-01-20T15:47",NA,NA,NA,NA,NA,NA,NA,NA,NA,NA,NA,11,"NA","2012-07-08",-14,80,"YEARS",">64","F","WHITE","White","NOT HISPANIC OR LATINO","Y","Xanomeline Low Dose","Xan_Lo","Xanomeline Low Dose","Xan_Lo","Xanomeline Low Dose","Xanomeline Low Dose",2012-07-22,2012-07-22,"H",2013-01-20,2013-01-20 23:59:59,"H","COMPLETED",2013-01-20,NA,2012-07-22,2013-01-20,183,NA,NA,NA,NA,NA,NA,"Disease Progression by Investigator","PD","Tumor Response","Investigator","RECIST 1.1",0,"N","Y",NA,NA,NA,NA,NA,NA,NA,NA,NA,NA,NA,NA,NA
"CDISCPILOT01","01-701-1192","1192","701","USA",NA,"2012-07-22","2013-01-20","2012-07-22","2013-01-20","2013-01-20T15:47",NA,NA,NA,NA,NA,NA,NA,NA,NA,NA,NA,12,"NA","2012-07-08",-14,80,"YEARS",">64","F","WHITE","White","NOT HISPANIC OR LATINO","Y","Xanomeline Low Dose","Xan_Lo","Xanomeline Low Dose","Xan_Lo","Xanomeline Low Dose","Xanomeline Low Dose",2012-07-22,2012-07-22,"H",2013-01-20,2013-01-20 23:59:59,"H","COMPLETED",2013-01-20,NA,2012-07-22,2013-01-20,183,NA,NA,NA,NA,NA,NA,"Response by Investigator (confirmation not required)","RSP","Tumor Response","Investigator","RECIST 1.1",0,"N","Y",NA,NA,NA,NA,NA,NA,NA,NA,NA,NA,NA,NA,NA
"CDISCPILOT01","01-701-1203","1203","701","USA",NA,"2013-02-02","2013-08-03","2013-02-02","2013-08-03","2013-08-03T10:10",NA,NA,NA,NA,NA,NA,NA,NA,NA,NA,NA,1,"NA","2013-01-25",-8,81,"YEARS",">64","F","BLACK OR AFRICAN AMERICAN","Non-white","NOT HISPANIC OR LATINO","Y","Placebo","Pbo","Placebo","Pbo","Placebo","Placebo",2013-02-02,2013-02-02,"H",2013-08-03,2013-08-03 23:59:59,"H","COMPLETED",2013-08-03,NA,2013-02-02,2013-08-03,183,NA,NA,NA,NA,NA,NA,"Best Overall Response of CR/PR by Investigator (confirmation not required)","BCP","Tumor Response","Investigator","RECIST 1.1",0,"N","Y",NA,NA,NA,NA,NA,NA,NA,NA,NA,NA,NA,NA,NA
"CDISCPILOT01","01-701-1203","1203","701","USA",NA,"2013-02-02","2013-08-03","2013-02-02","2013-08-03","2013-08-03T10:10",NA,NA,NA,NA,NA,NA,NA,NA,NA,NA,NA,2,"NA","2013-01-25",-8,81,"YEARS",">64","F","BLACK OR AFRICAN AMERICAN","Non-white","NOT HISPANIC OR LATINO","Y","Placebo","Pbo","Placebo","Pbo","Placebo","Placebo",2013-02-02,2013-02-02,"H",2013-08-03,2013-08-03 23:59:59,"H","COMPLETED",2013-08-03,NA,2013-02-02,2013-08-03,183,NA,NA,NA,NA,NA,NA,"Best Overall Response by Investigator (confirmation not required)","BOR","Tumor Response","Investigator","RECIST 1.1",7,"MISSING","Y",NA,NA,NA,NA,NA,NA,NA,NA,NA,NA,NA,NA,NA
"CDISCPILOT01","01-701-1203","1203","701","USA",NA,"2013-02-02","2013-08-03","2013-02-02","2013-08-03","2013-08-03T10:10",NA,NA,NA,NA,NA,NA,NA,NA,NA,NA,NA,3,"NA","2013-01-25",-8,81,"YEARS",">64","F","BLACK OR AFRICAN AMERICAN","Non-white","NOT HISPANIC OR LATINO","Y","Placebo","Pbo","Placebo","Pbo","Placebo","Placebo",2013-02-02,2013-02-02,"H",2013-08-03,2013-08-03 23:59:59,"H","COMPLETED",2013-08-03,NA,2013-02-02,2013-08-03,183,NA,NA,NA,NA,NA,NA,"Clinical Benefit by Investigator (confirmation for response not required)","CB","Tumor Response","Investigator","RECIST 1.1",0,"N","Y",NA,NA,NA,NA,NA,NA,NA,NA,NA,NA,NA,NA,NA
"CDISCPILOT01","01-701-1203","1203","701","USA",NA,"2013-02-02","2013-08-03","2013-02-02","2013-08-03","2013-08-03T10:10",NA,NA,NA,NA,NA,NA,NA,NA,NA,NA,NA,4,"NA","2013-01-25",-8,81,"YEARS",">64","F","BLACK OR AFRICAN AMERICAN","Non-white","NOT HISPANIC OR LATINO","Y","Placebo","Pbo","Placebo","Pbo","Placebo","Placebo",2013-02-02,2013-02-02,"H",2013-08-03,2013-08-03 23:59:59,"H","COMPLETED",2013-08-03,NA,2013-02-02,2013-08-03,183,NA,NA,NA,NA,NA,NA,"Best Confirmed Overall Response of CR/PR by Investigator","CBCP","Tumor Response","Investigator","RECIST 1.1",0,"N","Y",NA,NA,NA,NA,NA,NA,NA,NA,NA,NA,NA,NA,NA
"CDISCPILOT01","01-701-1203","1203","701","USA",NA,"2013-02-02","2013-08-03","2013-02-02","2013-08-03","2013-08-03T10:10",NA,NA,NA,NA,NA,NA,NA,NA,NA,NA,NA,5,"NA","2013-01-25",-8,81,"YEARS",">64","F","BLACK OR AFRICAN AMERICAN","Non-white","NOT HISPANIC OR LATINO","Y","Placebo","Pbo","Placebo","Pbo","Placebo","Placebo",2013-02-02,2013-02-02,"H",2013-08-03,2013-08-03 23:59:59,"H","COMPLETED",2013-08-03,NA,2013-02-02,2013-08-03,183,NA,NA,NA,NA,NA,NA,"Best Confirmed Overall Response by Investigator","CBOR","Tumor Response","Investigator","RECIST 1.1",7,"MISSING","Y",NA,NA,NA,NA,NA,NA,NA,NA,NA,NA,NA,NA,NA
"CDISCPILOT01","01-701-1203","1203","701","USA",NA,"2013-02-02","2013-08-03","2013-02-02","2013-08-03","2013-08-03T10:10",NA,NA,NA,NA,NA,NA,NA,NA,NA,NA,NA,6,"NA","2013-01-25",-8,81,"YEARS",">64","F","BLACK OR AFRICAN AMERICAN","Non-white","NOT HISPANIC OR LATINO","Y","Placebo","Pbo","Placebo","Pbo","Placebo","Placebo",2013-02-02,2013-02-02,"H",2013-08-03,2013-08-03 23:59:59,"H","COMPLETED",2013-08-03,NA,2013-02-02,2013-08-03,183,NA,NA,NA,NA,NA,NA,"Confirmed Clinical Benefit by Investigator","CCB","Tumor Response","Investigator","RECIST 1.1",0,"N","Y",NA,NA,NA,NA,NA,NA,NA,NA,NA,NA,NA,NA,NA
"CDISCPILOT01","01-701-1203","1203","701","USA",NA,"2013-02-02","2013-08-03","2013-02-02","2013-08-03","2013-08-03T10:10",NA,NA,NA,NA,NA,NA,NA,NA,NA,NA,NA,7,"NA","2013-01-25",-8,81,"YEARS",">64","F","BLACK OR AFRICAN AMERICAN","Non-white","NOT HISPANIC OR LATINO","Y","Placebo","Pbo","Placebo","Pbo","Placebo","Placebo",2013-02-02,2013-02-02,"H",2013-08-03,2013-08-03 23:59:59,"H","COMPLETED",2013-08-03,NA,2013-02-02,2013-08-03,183,NA,NA,NA,NA,NA,NA,"Confirmed Response by Investigator","CRSP","Tumor Response","Investigator","RECIST 1.1",0,"N","Y",NA,NA,NA,NA,NA,NA,NA,NA,NA,NA,NA,NA,NA
"CDISCPILOT01","01-701-1203","1203","701","USA",NA,"2013-02-02","2013-08-03","2013-02-02","2013-08-03","2013-08-03T10:10",NA,NA,NA,NA,NA,NA,NA,NA,NA,NA,NA,8,"NA","2013-01-25",-8,81,"YEARS",">64","F","BLACK OR AFRICAN AMERICAN","Non-white","NOT HISPANIC OR LATINO","Y","Placebo","Pbo","Placebo","Pbo","Placebo","Placebo",2013-02-02,2013-02-02,"H",2013-08-03,2013-08-03 23:59:59,"H","COMPLETED",2013-08-03,NA,2013-02-02,2013-08-03,183,NA,NA,NA,NA,NA,NA,"Death","DEATH","Reference Event",NA,NA,0,"N","Y",NA,NA,NA,NA,NA,NA,NA,NA,NA,NA,NA,NA,NA
"CDISCPILOT01","01-701-1203","1203","701","USA",NA,"2013-02-02","2013-08-03","2013-02-02","2013-08-03","2013-08-03T10:10",NA,NA,NA,NA,NA,NA,NA,NA,NA,NA,NA,9,"NA","2013-01-25",-8,81,"YEARS",">64","F","BLACK OR AFRICAN AMERICAN","Non-white","NOT HISPANIC OR LATINO","Y","Placebo","Pbo","Placebo","Pbo","Placebo","Placebo",2013-02-02,2013-02-02,"H",2013-08-03,2013-08-03 23:59:59,"H","COMPLETED",2013-08-03,NA,2013-02-02,2013-08-03,183,NA,NA,NA,NA,NA,NA,"Last Disease Assessment by Investigator","LSTA","Tumor Response","Investigator","RECIST 1.1",NA,NA,"Y",NA,NA,NA,NA,NA,NA,NA,NA,NA,NA,NA,NA,NA
"CDISCPILOT01","01-701-1203","1203","701","USA",NA,"2013-02-02","2013-08-03","2013-02-02","2013-08-03","2013-08-03T10:10",NA,NA,NA,NA,NA,NA,NA,NA,NA,NA,NA,10,"NA","2013-01-25",-8,81,"YEARS",">64","F","BLACK OR AFRICAN AMERICAN","Non-white","NOT HISPANIC OR LATINO","Y","Placebo","Pbo","Placebo","Pbo","Placebo","Placebo",2013-02-02,2013-02-02,"H",2013-08-03,2013-08-03 23:59:59,"H","COMPLETED",2013-08-03,NA,NA,2013-08-03,183,NA,NA,NA,NA,NA,NA,"Measurable Disease at Baseline by Investigator","MDIS",NA,"Investigator","RECIST 1.1",0,"N","Y",NA,NA,NA,NA,NA,NA,NA,NA,NA,NA,NA,NA,NA
"CDISCPILOT01","01-701-1203","1203","701","USA",NA,"2013-02-02","2013-08-03","2013-02-02","2013-08-03","2013-08-03T10:10",NA,NA,NA,NA,NA,NA,NA,NA,NA,NA,NA,11,"NA","2013-01-25",-8,81,"YEARS",">64","F","BLACK OR AFRICAN AMERICAN","Non-white","NOT HISPANIC OR LATINO","Y","Placebo","Pbo","Placebo","Pbo","Placebo","Placebo",2013-02-02,2013-02-02,"H",2013-08-03,2013-08-03 23:59:59,"H","COMPLETED",2013-08-03,NA,2013-02-02,2013-08-03,183,NA,NA,NA,NA,NA,NA,"Disease Progression by Investigator","PD","Tumor Response","Investigator","RECIST 1.1",0,"N","Y",NA,NA,NA,NA,NA,NA,NA,NA,NA,NA,NA,NA,NA
"CDISCPILOT01","01-701-1203","1203","701","USA",NA,"2013-02-02","2013-08-03","2013-02-02","2013-08-03","2013-08-03T10:10",NA,NA,NA,NA,NA,NA,NA,NA,NA,NA,NA,12,"NA","2013-01-25",-8,81,"YEARS",">64","F","BLACK OR AFRICAN AMERICAN","Non-white","NOT HISPANIC OR LATINO","Y","Placebo","Pbo","Placebo","Pbo","Placebo","Placebo",2013-02-02,2013-02-02,"H",2013-08-03,2013-08-03 23:59:59,"H","COMPLETED",2013-08-03,NA,2013-02-02,2013-08-03,183,NA,NA,NA,NA,NA,NA,"Response by Investigator (confirmation not required)","RSP","Tumor Response","Investigator","RECIST 1.1",0,"N","Y",NA,NA,NA,NA,NA,NA,NA,NA,NA,NA,NA,NA,NA
"CDISCPILOT01","01-701-1211","1211","701","USA",NA,"2012-11-15","2013-01-14","2012-11-15","2013-01-12","2013-01-14",NA,NA,"2013-01-14",61,"Y",2,"<= 30","Y",NA,"AE",NA,1,"NA","2012-10-30",-16,76,"YEARS",">64","F","WHITE","White","NOT HISPANIC OR LATINO","Y","Xanomeline Low Dose","Xan_Lo","Xanomeline Low Dose","Xan_Lo","Xanomeline Low Dose","Xanomeline Low Dose",2012-11-15,2012-11-15,"H",2013-01-12,2013-01-12 23:59:59,"H","DISCONTINUED",2013-01-14,NA,2012-11-15,2013-01-14,59,2013-01-14,"SUDDEN DEATH","ADVERSE EVENT",NA,NA,NA,"Best Overall Response of CR/PR by Investigator (confirmation not required)","BCP","Tumor Response","Investigator","RECIST 1.1",0,"N","Y",NA,NA,NA,NA,NA,NA,NA,NA,NA,NA,NA,NA,NA
"CDISCPILOT01","01-701-1211","1211","701","USA",NA,"2012-11-15","2013-01-14","2012-11-15","2013-01-12","2013-01-14",NA,NA,"2013-01-14",61,"Y",2,"<= 30","Y",NA,"AE",NA,2,"NA","2012-10-30",-16,76,"YEARS",">64","F","WHITE","White","NOT HISPANIC OR LATINO","Y","Xanomeline Low Dose","Xan_Lo","Xanomeline Low Dose","Xan_Lo","Xanomeline Low Dose","Xanomeline Low Dose",2012-11-15,2012-11-15,"H",2013-01-12,2013-01-12 23:59:59,"H","DISCONTINUED",2013-01-14,NA,2012-11-15,2013-01-14,59,2013-01-14,"SUDDEN DEATH","ADVERSE EVENT",NA,NA,NA,"Best Overall Response by Investigator (confirmation not required)","BOR","Tumor Response","Investigator","RECIST 1.1",7,"MISSING","Y",NA,NA,NA,NA,NA,NA,NA,NA,NA,NA,NA,NA,NA
"CDISCPILOT01","01-701-1211","1211","701","USA",NA,"2012-11-15","2013-01-14","2012-11-15","2013-01-12","2013-01-14",NA,NA,"2013-01-14",61,"Y",2,"<= 30","Y",NA,"AE",NA,3,"NA","2012-10-30",-16,76,"YEARS",">64","F","WHITE","White","NOT HISPANIC OR LATINO","Y","Xanomeline Low Dose","Xan_Lo","Xanomeline Low Dose","Xan_Lo","Xanomeline Low Dose","Xanomeline Low Dose",2012-11-15,2012-11-15,"H",2013-01-12,2013-01-12 23:59:59,"H","DISCONTINUED",2013-01-14,NA,2012-11-15,2013-01-14,59,2013-01-14,"SUDDEN DEATH","ADVERSE EVENT",NA,NA,NA,"Clinical Benefit by Investigator (confirmation for response not required)","CB","Tumor Response","Investigator","RECIST 1.1",0,"N","Y",NA,NA,NA,NA,NA,NA,NA,NA,NA,NA,NA,NA,NA
"CDISCPILOT01","01-701-1211","1211","701","USA",NA,"2012-11-15","2013-01-14","2012-11-15","2013-01-12","2013-01-14",NA,NA,"2013-01-14",61,"Y",2,"<= 30","Y",NA,"AE",NA,4,"NA","2012-10-30",-16,76,"YEARS",">64","F","WHITE","White","NOT HISPANIC OR LATINO","Y","Xanomeline Low Dose","Xan_Lo","Xanomeline Low Dose","Xan_Lo","Xanomeline Low Dose","Xanomeline Low Dose",2012-11-15,2012-11-15,"H",2013-01-12,2013-01-12 23:59:59,"H","DISCONTINUED",2013-01-14,NA,2012-11-15,2013-01-14,59,2013-01-14,"SUDDEN DEATH","ADVERSE EVENT",NA,NA,NA,"Best Confirmed Overall Response of CR/PR by Investigator","CBCP","Tumor Response","Investigator","RECIST 1.1",0,"N","Y",NA,NA,NA,NA,NA,NA,NA,NA,NA,NA,NA,NA,NA
"CDISCPILOT01","01-701-1211","1211","701","USA",NA,"2012-11-15","2013-01-14","2012-11-15","2013-01-12","2013-01-14",NA,NA,"2013-01-14",61,"Y",2,"<= 30","Y",NA,"AE",NA,5,"NA","2012-10-30",-16,76,"YEARS",">64","F","WHITE","White","NOT HISPANIC OR LATINO","Y","Xanomeline Low Dose","Xan_Lo","Xanomeline Low Dose","Xan_Lo","Xanomeline Low Dose","Xanomeline Low Dose",2012-11-15,2012-11-15,"H",2013-01-12,2013-01-12 23:59:59,"H","DISCONTINUED",2013-01-14,NA,2012-11-15,2013-01-14,59,2013-01-14,"SUDDEN DEATH","ADVERSE EVENT",NA,NA,NA,"Best Confirmed Overall Response by Investigator","CBOR","Tumor Response","Investigator","RECIST 1.1",7,"MISSING","Y",NA,NA,NA,NA,NA,NA,NA,NA,NA,NA,NA,NA,NA
"CDISCPILOT01","01-701-1211","1211","701","USA",NA,"2012-11-15","2013-01-14","2012-11-15","2013-01-12","2013-01-14",NA,NA,"2013-01-14",61,"Y",2,"<= 30","Y",NA,"AE",NA,6,"NA","2012-10-30",-16,76,"YEARS",">64","F","WHITE","White","NOT HISPANIC OR LATINO","Y","Xanomeline Low Dose","Xan_Lo","Xanomeline Low Dose","Xan_Lo","Xanomeline Low Dose","Xanomeline Low Dose",2012-11-15,2012-11-15,"H",2013-01-12,2013-01-12 23:59:59,"H","DISCONTINUED",2013-01-14,NA,2012-11-15,2013-01-14,59,2013-01-14,"SUDDEN DEATH","ADVERSE EVENT",NA,NA,NA,"Confirmed Clinical Benefit by Investigator","CCB","Tumor Response","Investigator","RECIST 1.1",0,"N","Y",NA,NA,NA,NA,NA,NA,NA,NA,NA,NA,NA,NA,NA
"CDISCPILOT01","01-701-1211","1211","701","USA",NA,"2012-11-15","2013-01-14","2012-11-15","2013-01-12","2013-01-14",NA,NA,"2013-01-14",61,"Y",2,"<= 30","Y",NA,"AE",NA,7,"NA","2012-10-30",-16,76,"YEARS",">64","F","WHITE","White","NOT HISPANIC OR LATINO","Y","Xanomeline Low Dose","Xan_Lo","Xanomeline Low Dose","Xan_Lo","Xanomeline Low Dose","Xanomeline Low Dose",2012-11-15,2012-11-15,"H",2013-01-12,2013-01-12 23:59:59,"H","DISCONTINUED",2013-01-14,NA,2012-11-15,2013-01-14,59,2013-01-14,"SUDDEN DEATH","ADVERSE EVENT",NA,NA,NA,"Confirmed Response by Investigator","CRSP","Tumor Response","Investigator","RECIST 1.1",0,"N","Y",NA,NA,NA,NA,NA,NA,NA,NA,NA,NA,NA,NA,NA
"CDISCPILOT01","01-701-1211","1211","701","USA",NA,"2012-11-15","2013-01-14","2012-11-15","2013-01-12","2013-01-14",NA,NA,"2013-01-14",61,"Y",2,"<= 30","Y",NA,"AE",NA,8,"NA","2012-10-30",-16,76,"YEARS",">64","F","WHITE","White","NOT HISPANIC OR LATINO","Y","Xanomeline Low Dose","Xan_Lo","Xanomeline Low Dose","Xan_Lo","Xanomeline Low Dose","Xanomeline Low Dose",2012-11-15,2012-11-15,"H",2013-01-12,2013-01-12 23:59:59,"H","DISCONTINUED",2013-01-14,NA,2012-11-15,2013-01-14,59,2013-01-14,"SUDDEN DEATH","ADVERSE EVENT",2013-01-14,NA,NA,"Death","DEATH","Reference Event",NA,NA,1,"Y","Y",NA,NA,NA,NA,NA,NA,NA,NA,NA,NA,NA,NA,NA
"CDISCPILOT01","01-701-1211","1211","701","USA",NA,"2012-11-15","2013-01-14","2012-11-15","2013-01-12","2013-01-14",NA,NA,"2013-01-14",61,"Y",2,"<= 30","Y",NA,"AE",NA,9,"NA","2012-10-30",-16,76,"YEARS",">64","F","WHITE","White","NOT HISPANIC OR LATINO","Y","Xanomeline Low Dose","Xan_Lo","Xanomeline Low Dose","Xan_Lo","Xanomeline Low Dose","Xanomeline Low Dose",2012-11-15,2012-11-15,"H",2013-01-12,2013-01-12 23:59:59,"H","DISCONTINUED",2013-01-14,NA,2012-11-15,2013-01-14,59,2013-01-14,"SUDDEN DEATH","ADVERSE EVENT",NA,NA,NA,"Last Disease Assessment by Investigator","LSTA","Tumor Response","Investigator","RECIST 1.1",NA,NA,"Y",NA,NA,NA,NA,NA,NA,NA,NA,NA,NA,NA,NA,NA
"CDISCPILOT01","01-701-1211","1211","701","USA",NA,"2012-11-15","2013-01-14","2012-11-15","2013-01-12","2013-01-14",NA,NA,"2013-01-14",61,"Y",2,"<= 30","Y",NA,"AE",NA,10,"NA","2012-10-30",-16,76,"YEARS",">64","F","WHITE","White","NOT HISPANIC OR LATINO","Y","Xanomeline Low Dose","Xan_Lo","Xanomeline Low Dose","Xan_Lo","Xanomeline Low Dose","Xanomeline Low Dose",2012-11-15,2012-11-15,"H",2013-01-12,2013-01-12 23:59:59,"H","DISCONTINUED",2013-01-14,NA,NA,2013-01-14,59,2013-01-14,"SUDDEN DEATH","ADVERSE EVENT",NA,NA,NA,"Measurable Disease at Baseline by Investigator","MDIS",NA,"Investigator","RECIST 1.1",0,"N","Y",NA,NA,NA,NA,NA,NA,NA,NA,NA,NA,NA,NA,NA
"CDISCPILOT01","01-701-1211","1211","701","USA",NA,"2012-11-15","2013-01-14","2012-11-15","2013-01-12","2013-01-14",NA,NA,"2013-01-14",61,"Y",2,"<= 30","Y",NA,"AE",NA,11,"NA","2012-10-30",-16,76,"YEARS",">64","F","WHITE","White","NOT HISPANIC OR LATINO","Y","Xanomeline Low Dose","Xan_Lo","Xanomeline Low Dose","Xan_Lo","Xanomeline Low Dose","Xanomeline Low Dose",2012-11-15,2012-11-15,"H",2013-01-12,2013-01-12 23:59:59,"H","DISCONTINUED",2013-01-14,NA,2012-11-15,2013-01-14,59,2013-01-14,"SUDDEN DEATH","ADVERSE EVENT",NA,NA,NA,"Disease Progression by Investigator","PD","Tumor Response","Investigator","RECIST 1.1",0,"N","Y",NA,NA,NA,NA,NA,NA,NA,NA,NA,NA,NA,NA,NA
"CDISCPILOT01","01-701-1211","1211","701","USA",NA,"2012-11-15","2013-01-14","2012-11-15","2013-01-12","2013-01-14",NA,NA,"2013-01-14",61,"Y",2,"<= 30","Y",NA,"AE",NA,12,"NA","2012-10-30",-16,76,"YEARS",">64","F","WHITE","White","NOT HISPANIC OR LATINO","Y","Xanomeline Low Dose","Xan_Lo","Xanomeline Low Dose","Xan_Lo","Xanomeline Low Dose","Xanomeline Low Dose",2012-11-15,2012-11-15,"H",2013-01-12,2013-01-12 23:59:59,"H","DISCONTINUED",2013-01-14,NA,2012-11-15,2013-01-14,59,2013-01-14,"SUDDEN DEATH","ADVERSE EVENT",NA,NA,NA,"Response by Investigator (confirmation not required)","RSP","Tumor Response","Investigator","RECIST 1.1",0,"N","Y",NA,NA,NA,NA,NA,NA,NA,NA,NA,NA,NA,NA,NA
"CDISCPILOT01","01-701-1234","1234","701","USA",NA,"2013-03-30","2013-09-22","2013-03-30","2013-09-22","2013-09-22T09:25",NA,NA,NA,NA,NA,NA,NA,NA,NA,NA,NA,1,"NA","2013-03-20",-10,69,"YEARS",">64","M","WHITE","White","NOT HISPANIC OR LATINO","Y","Placebo","Pbo","Placebo","Pbo","Placebo","Placebo",2013-03-30,2013-03-30,"H",2013-09-22,2013-09-22 23:59:59,"H","COMPLETED",2013-09-22,NA,2013-03-30,2013-09-22,177,NA,NA,NA,NA,NA,NA,"Best Overall Response of CR/PR by Investigator (confirmation not required)","BCP","Tumor Response","Investigator","RECIST 1.1",0,"N","Y",NA,NA,NA,NA,NA,NA,NA,NA,NA,NA,NA,NA,NA
